 Sirius Chiron 8 Feb 2021 100 exposures
 Wavelength    Intensity
  5250.4200     0.999755
  5250.4400     1.000509
  5250.4600     1.003067
  5250.4800     1.000372
  5250.5000     0.996409
  5250.5200     0.997289
  5250.5400     0.999116
  5250.5600     0.996900
  5250.5800     0.995119
  5250.6000     0.999984
  5250.6200     1.001228
  5250.6400     1.000007
  5250.6600     1.001480
  5250.6800     1.000235
  5250.7000     0.998419
  5250.7200     0.999835
  5250.7400     1.000806
  5250.7600     0.997449
  5250.7800     0.995816
  5250.8000     0.991214
  5250.8200     0.993509
  5250.8400     0.993931
  5250.8600     0.990437
  5250.8800     0.992287
  5250.9000     0.996569
  5250.9200     0.995233
  5250.9400     0.991214
  5250.9600     0.994559
  5250.9800     0.996307
  5251.0000     0.993383
  5251.0200     0.987399
  5251.0400     0.980502
  5251.0600     0.980536
  5251.0800     0.976871
  5251.1000     0.969573
  5251.1200     0.962162
  5251.1400     0.962368
  5251.1600     0.957594
  5251.1800     0.950594
  5251.2000     0.945421
  5251.2200     0.944633
  5251.2400     0.941470
  5251.2600     0.938455
  5251.2800     0.939963
  5251.3000     0.938821
  5251.3200     0.937279
  5251.3400     0.939472
  5251.3600     0.942920
  5251.3800     0.941755
  5251.4000     0.941162
  5251.4200     0.944176
  5251.4400     0.944382
  5251.4600     0.947534
  5251.4800     0.957457
  5251.5000     0.959559
  5251.5200     0.965268
  5251.5400     0.970281
  5251.5600     0.977773
  5251.5800     0.982991
  5251.6000     0.987536
  5251.6200     0.993486
  5251.6400     0.992881
  5251.6600     0.994845
  5251.6800     0.994868
  5251.7000     0.995896
  5251.7200     0.994788
  5251.7400     0.998317
  5251.7600     0.998248
  5251.7800     0.993395
  5251.8000     0.992527
  5251.8200     0.996101
  5251.8400     0.994457
  5251.8600     0.996592
  5251.8800     0.995256
  5251.9000     0.994902
  5251.9200     0.995142
  5251.9400     0.995370
  5251.9600     0.997083
  5251.9800     0.994514
  5252.0000     0.992093
  5252.0200     0.991031
  5252.0400     0.991351
  5252.0600     0.992481
  5252.0800     0.993418
  5252.1000     0.993064
  5252.1200     0.993338
  5252.1400     0.994559
  5252.1600     0.994103
  5252.1800     0.992881
  5252.2000     0.993726
  5252.2200     0.994422
  5252.2400     0.991739
  5252.2600     0.988713
  5252.2800     0.991408
  5252.3000     0.995816
  5252.3200     0.995747
  5252.3400     0.996649
  5252.3600     1.000155
  5252.3800     1.001388
  5252.4000     1.000064
  5252.4200     1.000338
  5252.4400     1.001308
  5252.4600     0.999093
  5252.4800     0.999812
  5252.5000     0.999356
  5252.5200     0.999915
  5252.5400     0.997974
  5252.5600     0.997757
  5252.5800     0.998100
  5252.6000     0.995313
  5252.6200     0.995861
  5252.6400     0.995382
  5252.6600     0.996638
  5252.6800     0.994754
  5252.7000     0.993817
  5252.7200     0.997369
  5252.7400     1.001069
  5252.7600     0.999653
  5252.7800     0.997403
  5252.8000     0.995770
  5252.8200     0.992230
  5252.8400     0.992744
  5252.8600     0.992310
  5252.8800     0.995370
  5252.9000     0.997471
  5252.9200     0.996227
  5252.9400     0.996387
  5252.9600     0.996364
  5252.9800     0.997026
  5253.0000     0.997312
  5253.0200     0.993920
  5253.0400     0.998933
  5253.0600     0.999321
  5253.0800     0.996958
  5253.1000     0.996033
  5253.1200     0.997072
  5253.1400     0.997494
  5253.1600     0.995359
  5253.1800     0.996352
  5253.2000     0.995690
  5253.2200     0.997529
  5253.2400     0.995918
  5253.2600     0.996181
  5253.2800     0.997608
  5253.3000     0.997186
  5253.3200     0.994251
  5253.3400     0.994902
  5253.3600     0.993589
  5253.3800     0.995073
  5253.4000     0.992104
  5253.4200     0.994628
  5253.4400     0.989010
  5253.4600     0.986200
  5253.4800     0.985275
  5253.5000     0.984373
  5253.5200     0.977670
  5253.5400     0.974929
  5253.5600     0.972645
  5253.5800     0.971869
  5253.6000     0.968443
  5253.6200     0.968934
  5253.6400     0.968797
  5253.6600     0.968717
  5253.6800     0.965702
  5253.7000     0.963898
  5253.7200     0.964469
  5253.7400     0.964697
  5253.7600     0.968740
  5253.7800     0.968077
  5253.8000     0.966684
  5253.8200     0.968157
  5253.8400     0.972623
  5253.8600     0.973639
  5253.8800     0.978835
  5253.9000     0.979406
  5253.9200     0.980354
  5253.9400     0.981815
  5253.9600     0.987354
  5253.9800     0.990734
  5254.0000     0.987708
  5254.0200     0.990528
  5254.0400     0.994114
  5254.0600     0.995050
  5254.0800     0.995975
  5254.1000     0.994834
  5254.1200     0.994651
  5254.1400     0.990860
  5254.1600     0.996021
  5254.1800     0.995256
  5254.2000     0.998579
  5254.2200     0.997551
  5254.2400     0.998339
  5254.2600     0.999390
  5254.2800     0.993657
  5254.3000     0.992869
  5254.3200     0.993098
  5254.3400     0.993052
  5254.3600     0.992847
  5254.3800     0.992892
  5254.4000     0.992435
  5254.4200     0.989295
  5254.4400     0.991442
  5254.4600     0.990083
  5254.4800     0.986828
  5254.5000     0.987879
  5254.5200     0.987594
  5254.5400     0.990974
  5254.5600     0.985744
  5254.5800     0.988644
  5254.6000     0.989980
  5254.6200     0.989535
  5254.6400     0.987182
  5254.6600     0.987160
  5254.6800     0.985892
  5254.7000     0.982729
  5254.7200     0.975409
  5254.7400     0.965565
  5254.7600     0.956475
  5254.7800     0.947659
  5254.8000     0.939449
  5254.8200     0.933613
  5254.8400     0.927504
  5254.8600     0.921257
  5254.8800     0.915570
  5254.9000     0.914851
  5254.9200     0.913720
  5254.9400     0.910534
  5254.9600     0.910614
  5254.9800     0.910215
  5255.0000     0.905841
  5255.0200     0.902164
  5255.0400     0.907120
  5255.0600     0.908582
  5255.0800     0.905064
  5255.1000     0.907611
  5255.1200     0.916827
  5255.1400     0.920858
  5255.1600     0.924466
  5255.1800     0.933294
  5255.2000     0.935852
  5255.2200     0.947499
  5255.2400     0.957240
  5255.2600     0.965303
  5255.2800     0.975603
  5255.3000     0.985481
  5255.3200     0.987080
  5255.3400     0.994525
  5255.3600     0.992344
  5255.3800     0.999173
  5255.4000     0.994708
  5255.4200     0.994126
  5255.4400     0.995096
  5255.4600     0.995496
  5255.4800     0.994308
  5255.5000     0.995713
  5255.5200     0.996192
  5255.5400     0.999538
  5255.5600     0.994856
  5255.5800     0.999710
  5255.6000     0.995290
  5255.6200     0.998979
  5255.6400     0.995210
  5255.6600     0.991876
  5255.6800     0.999812
  5255.7000     0.996569
  5255.7200     0.995073
  5255.7400     0.991625
  5255.7600     0.994274
  5255.7800     0.993589
  5255.8000     0.993874
  5255.8200     0.991682
  5255.8400     0.992675
  5255.8600     0.989466
  5255.8800     0.990334
  5255.9000     0.995393
  5255.9200     0.992572
  5255.9400     0.993771
  5255.9600     0.993258
  5255.9800     0.994856
  5256.0000     0.993543
  5256.0200     0.992333
  5256.0400     0.991259
  5256.0600     0.998259
  5256.0800     1.001754
  5256.1000     1.000498
  5256.1200     1.001879
  5256.1400     0.998237
  5256.1600     1.000395
  5256.1800     0.998259
  5256.2000     1.001206
  5256.2200     0.997266
  5256.2400     1.000737
  5256.2600     1.000281
  5256.2800     1.001948
  5256.3000     1.001411
  5256.3200     1.000863
  5256.3400     0.996581
  5256.3600     0.996135
  5256.3800     0.997597
  5256.4000     0.999196
  5256.4200     0.995975
  5256.4400     0.998225
  5256.4600     0.995530
  5256.4800     0.994799
  5256.5000     0.997083
  5256.5200     0.992116
  5256.5400     0.997369
  5256.5600     0.997825
  5256.5800     0.996729
  5256.6000     0.995713
  5256.6200     0.997837
  5256.6400     0.997449
  5256.6600     0.994811
  5256.6800     0.996135
  5256.7000     0.993532
  5256.7200     0.995256
  5256.7400     0.989912
  5256.7600     0.986063
  5256.7800     0.985161
  5256.8000     0.983094
  5256.8200     0.977544
  5256.8400     0.974929
  5256.8600     0.973742
  5256.8800     0.975923
  5256.9000     0.968980
  5256.9200     0.965074
  5256.9400     0.965999
  5256.9600     0.961032
  5256.9800     0.957320
  5257.0000     0.954762
  5257.0200     0.954283
  5257.0400     0.955607
  5257.0600     0.952924
  5257.0800     0.947876
  5257.1000     0.950194
  5257.1200     0.947659
  5257.1400     0.948676
  5257.1600     0.947020
  5257.1800     0.944976
  5257.2000     0.946906
  5257.2200     0.949749
  5257.2400     0.949978
  5257.2600     0.954283
  5257.2800     0.959638
  5257.3000     0.964298
  5257.3200     0.967324
  5257.3400     0.971789
  5257.3600     0.973330
  5257.3800     0.975272
  5257.4000     0.978024
  5257.4200     0.981621
  5257.4400     0.984967
  5257.4600     0.987719
  5257.4800     0.990380
  5257.5000     0.992550
  5257.5200     0.992949
  5257.5400     0.995188
  5257.5600     0.996318
  5257.5800     0.996421
  5257.6000     0.996912
  5257.6200     0.995873
  5257.6400     0.994571
  5257.6600     0.994936
  5257.6800     0.993338
  5257.7000     0.994320
  5257.7200     0.993931
  5257.7400     0.993680
  5257.7600     0.991864
  5257.7800     0.988861
  5257.8000     0.988998
  5257.8200     0.987810
  5257.8400     0.987639
  5257.8600     0.987057
  5257.8800     0.986771
  5257.9000     0.986178
  5257.9200     0.984807
  5257.9400     0.982957
  5257.9600     0.983471
  5257.9800     0.984008
  5258.0000     0.981279
  5258.0200     0.983425
  5258.0400     0.987799
  5258.0600     0.987148
  5258.0800     0.985641
  5258.1000     0.984853
  5258.1200     0.983814
  5258.1400     0.983916
  5258.1600     0.987742
  5258.1800     0.987354
  5258.2000     0.986269
  5258.2200     0.987068
  5258.2400     0.988027
  5258.2600     0.990574
  5258.2800     0.989820
  5258.3000     0.987742
  5258.3200     0.988884
  5258.3400     0.989147
  5258.3600     0.987982
  5258.3800     0.987125
  5258.4000     0.988975
  5258.4200     0.987913
  5258.4400     0.987011
  5258.4600     0.988781
  5258.4800     0.989318
  5258.5000     0.988347
  5258.5200     0.989181
  5258.5400     0.989695
  5258.5600     0.991316
  5258.5800     0.990997
  5258.6000     0.989569
  5258.6200     0.990745
  5258.6400     0.989112
  5258.6600     0.989466
  5258.6800     0.990494
  5258.7000     0.990608
  5258.7200     0.991373
  5258.7400     0.993669
  5258.7600     0.993086
  5258.7800     0.995542
  5258.8000     0.996135
  5258.8200     0.994594
  5258.8400     0.994651
  5258.8600     0.994502
  5258.8800     0.997426
  5258.9000     0.996946
  5258.9200     0.993737
  5258.9400     0.994400
  5258.9600     0.993612
  5258.9800     0.994137
  5259.0000     0.995656
  5259.0200     0.995165
  5259.0400     1.000817
  5259.0600     0.999253
  5259.0800     1.001377
  5259.1000     1.001651
  5259.1200     1.001137
  5259.1400     0.996569
  5259.1600     0.996946
  5259.1800     0.995404
  5259.2000     0.996010
  5259.2200     0.997643
  5259.2400     0.994571
  5259.2600     0.994868
  5259.2800     0.995142
  5259.3000     0.994822
  5259.3200     0.992047
  5259.3400     0.993806
  5259.3600     0.993109
  5259.3800     0.993497
  5259.4000     0.994708
  5259.4200     0.994297
  5259.4400     0.998248
  5259.4600     0.997711
  5259.4800     0.996307
  5259.5000     0.997038
  5259.5200     0.995713
  5259.5400     0.994708
  5259.5600     0.994377
  5259.5800     0.995256
  5259.6000     0.991556
  5259.6200     0.994217
  5259.6400     0.992984
  5259.6600     0.992424
  5259.6800     0.994011
  5259.7000     0.995119
  5259.7200     0.995359
  5259.7400     0.993029
  5259.7600     0.992378
  5259.7800     0.993338
  5259.8000     0.991785
  5259.8200     0.991191
  5259.8400     0.997312
  5259.8600     0.991967
  5259.8800     0.985538
  5259.9000     0.992698
  5259.9200     0.992378
  5259.9400     0.993657
  5259.9600     0.991236
  5259.9800     0.989558
  5260.0000     0.986863
  5260.0200     0.983014
  5260.0400     0.976083
  5260.0600     0.969219
  5260.0800     0.963715
  5260.1000     0.951896
  5260.1200     0.939677
  5260.1400     0.928863
  5260.1600     0.919236
  5260.1800     0.910317
  5260.2000     0.901216
  5260.2200     0.893211
  5260.2400     0.887775
  5260.2600     0.883676
  5260.2800     0.880250
  5260.3000     0.876698
  5260.3200     0.876470
  5260.3400     0.875545
  5260.3600     0.876927
  5260.3800     0.877018
  5260.4000     0.880090
  5260.4200     0.882751
  5260.4400     0.887535
  5260.4600     0.892537
  5260.4800     0.899617
  5260.5000     0.907851
  5260.5200     0.914189
  5260.5400     0.924478
  5260.5600     0.936388
  5260.5800     0.944873
  5260.6000     0.955493
  5260.6200     0.966319
  5260.6400     0.975340
  5260.6600     0.983460
  5260.6800     0.985778
  5260.7000     0.986646
  5260.7200     0.987514
  5260.7400     0.992013
  5260.7600     0.992310
  5260.7800     0.990209
  5260.8000     0.990289
  5260.8200     0.988873
  5260.8400     0.988633
  5260.8600     0.991693
  5260.8800     0.992310
  5260.9000     0.991568
  5260.9200     0.992321
  5260.9400     0.992755
  5260.9600     0.992904
  5260.9800     0.993703
  5261.0000     0.995507
  5261.0200     0.993395
  5261.0400     0.992230
  5261.0600     0.994400
  5261.0800     0.996135
  5261.1000     0.994651
  5261.1200     0.998054
  5261.1400     1.001217
  5261.1600     0.999447
  5261.1800     0.999321
  5261.2000     0.998967
  5261.2200     0.997038
  5261.2400     0.991773
  5261.2600     0.993497
  5261.2800     0.995816
  5261.3000     0.996786
  5261.3200     0.995930
  5261.3400     0.994617
  5261.3600     0.992413
  5261.3800     0.993383
  5261.4000     0.992161
  5261.4200     0.991773
  5261.4400     0.990346
  5261.4600     0.988062
  5261.4800     0.986886
  5261.5000     0.986394
  5261.5200     0.987377
  5261.5400     0.986212
  5261.5600     0.986840
  5261.5800     0.987182
  5261.6000     0.987205
  5261.6200     0.986817
  5261.6400     0.987445
  5261.6600     0.987000
  5261.6800     0.989432
  5261.7000     0.988107
  5261.7200     0.988050
  5261.7400     0.990014
  5261.7600     0.990437
  5261.7800     0.990506
  5261.8000     0.992218
  5261.8200     0.994422
  5261.8400     0.993612
  5261.8600     0.996272
  5261.8800     0.993669
  5261.9000     0.990722
  5261.9200     0.991373
  5261.9400     0.989786
  5261.9600     0.987788
  5261.9800     0.987605
  5262.0000     0.984282
  5262.0200     0.983334
  5262.0400     0.982660
  5262.0600     0.981633
  5262.0800     0.979691
  5262.1000     0.977944
  5262.1200     0.978172
  5262.1400     0.977133
  5262.1600     0.972543
  5262.1800     0.972623
  5262.2000     0.971515
  5262.2200     0.977110
  5262.2400     0.974210
  5262.2600     0.977053
  5262.2800     0.972040
  5262.3000     0.971618
  5262.3200     0.971206
  5262.3400     0.969653
  5262.3600     0.971629
  5262.3800     0.971618
  5262.4000     0.970578
  5262.4200     0.972405
  5262.4400     0.975820
  5262.4600     0.976231
  5262.4800     0.978321
  5262.5000     0.979166
  5262.5200     0.981987
  5262.5400     0.985572
  5262.5600     0.986098
  5262.5800     0.987057
  5262.6000     0.988838
  5262.6200     0.989044
  5262.6400     0.990197
  5262.6600     0.990780
  5262.6800     0.994548
  5262.7000     0.993452
  5262.7200     0.993966
  5262.7400     0.995667
  5262.7600     0.994651
  5262.7800     0.993463
  5262.8000     0.990962
  5262.8200     0.991979
  5262.8400     0.991008
  5262.8600     0.991031
  5262.8800     0.991659
  5262.9000     0.990860
  5262.9200     0.989512
  5262.9400     0.989832
  5262.9600     0.991099
  5262.9800     0.989992
  5263.0000     0.990426
  5263.0200     0.988644
  5263.0400     0.986098
  5263.0600     0.987753
  5263.0800     0.987160
  5263.1000     0.984202
  5263.1200     0.983094
  5263.1400     0.980913
  5263.1600     0.978264
  5263.1800     0.975694
  5263.2000     0.974472
  5263.2200     0.973490
  5263.2400     0.971732
  5263.2600     0.970144
  5263.2800     0.969117
  5263.3000     0.972805
  5263.3200     0.975135
  5263.3400     0.975409
  5263.3600     0.976071
  5263.3800     0.974621
  5263.4000     0.974552
  5263.4200     0.973673
  5263.4400     0.972383
  5263.4600     0.972862
  5263.4800     0.972189
  5263.5000     0.972554
  5263.5200     0.972645
  5263.5400     0.974153
  5263.5600     0.973673
  5263.5800     0.975466
  5263.6000     0.975877
  5263.6200     0.979805
  5263.6400     0.980822
  5263.6600     0.980845
  5263.6800     0.983174
  5263.7000     0.985275
  5263.7200     0.987514
  5263.7400     0.987902
  5263.7600     0.987525
  5263.7800     0.987308
  5263.8000     0.988027
  5263.8200     0.987000
  5263.8400     0.985881
  5263.8600     0.984876
  5263.8800     0.985858
  5263.9000     0.982203
  5263.9200     0.981370
  5263.9400     0.977670
  5263.9600     0.975272
  5263.9800     0.970270
  5264.0000     0.963989
  5264.0200     0.958188
  5264.0400     0.954648
  5264.0600     0.948767
  5264.0800     0.944039
  5264.1000     0.938592
  5264.1200     0.935018
  5264.1400     0.928509
  5264.1600     0.928452
  5264.1800     0.924923
  5264.2000     0.924580
  5264.2200     0.920698
  5264.2400     0.919453
  5264.2600     0.920218
  5264.2800     0.919339
  5264.3000     0.916587
  5264.3200     0.918323
  5264.3400     0.918026
  5264.3600     0.922696
  5264.3800     0.924957
  5264.4000     0.926933
  5264.4200     0.932015
  5264.4400     0.936160
  5264.4600     0.944816
  5264.4800     0.950423
  5264.5000     0.955014
  5264.5200     0.957697
  5264.5400     0.959159
  5264.5600     0.959479
  5264.5800     0.956464
  5264.6000     0.950103
  5264.6200     0.942989
  5264.6400     0.932665
  5264.6600     0.923496
  5264.6800     0.912704
  5264.7000     0.903454
  5264.7200     0.896328
  5264.7400     0.892172
  5264.7600     0.885651
  5264.7800     0.879793
  5264.8000     0.876675
  5264.8200     0.874209
  5264.8400     0.871959
  5264.8600     0.870874
  5264.8800     0.870235
  5264.9000     0.871388
  5264.9200     0.871605
  5264.9400     0.873683
  5264.9600     0.876767
  5264.9800     0.879005
  5265.0000     0.883002
  5265.0200     0.886622
  5265.0400     0.893097
  5265.0600     0.900165
  5265.0800     0.907325
  5265.1000     0.918128
  5265.1200     0.928018
  5265.1400     0.939517
  5265.1600     0.951177
  5265.1800     0.962139
  5265.2000     0.968397
  5265.2200     0.971777
  5265.2400     0.976163
  5265.2600     0.980125
  5265.2800     0.982695
  5265.3000     0.985344
  5265.3200     0.985858
  5265.3400     0.985801
  5265.3600     0.987331
  5265.3800     0.987491
  5265.4000     0.987445
  5265.4200     0.987673
  5265.4400     0.989067
  5265.4600     0.989238
  5265.4800     0.988039
  5265.5000     0.987388
  5265.5200     0.987080
  5265.5400     0.988564
  5265.5600     0.987765
  5265.5800     0.986794
  5265.6000     0.986440
  5265.6200     0.993452
  5265.6400     0.992070
  5265.6600     0.992367
  5265.6800     0.993109
  5265.7000     0.992812
  5265.7200     0.993029
  5265.7400     0.993041
  5265.7600     0.992230
  5265.7800     0.989923
  5265.8000     0.987765
  5265.8200     0.988256
  5265.8400     0.987068
  5265.8600     0.986554
  5265.8800     0.984876
  5265.9000     0.984647
  5265.9200     0.985161
  5265.9400     0.982146
  5265.9600     0.982386
  5265.9800     0.981987
  5266.0000     0.983528
  5266.0200     0.982809
  5266.0400     0.982752
  5266.0600     0.982889
  5266.0800     0.981267
  5266.1000     0.982478
  5266.1200     0.982752
  5266.1400     0.981998
  5266.1600     0.982181
  5266.1800     0.982877
  5266.2000     0.983985
  5266.2200     0.982626
  5266.2400     0.983871
  5266.2600     0.983791
  5266.2800     0.983562
  5266.3000     0.983414
  5266.3200     0.982649
  5266.3400     0.979508
  5266.3600     0.973239
  5266.3800     0.966719
  5266.4000     0.960152
  5266.4200     0.953129
  5266.4400     0.946746
  5266.4600     0.943263
  5266.4800     0.939666
  5266.5000     0.936057
  5266.5200     0.933294
  5266.5400     0.929913
  5266.5600     0.928657
  5266.5800     0.928143
  5266.6000     0.925962
  5266.6200     0.924124
  5266.6400     0.922765
  5266.6600     0.923324
  5266.6800     0.924466
  5266.7000     0.926168
  5266.7200     0.926841
  5266.7400     0.928383
  5266.7600     0.930701
  5266.7800     0.934287
  5266.8000     0.936537
  5266.8200     0.947020
  5266.8400     0.952832
  5266.8600     0.958702
  5266.8800     0.964732
  5266.9000     0.973479
  5266.9200     0.980205
  5266.9400     0.985846
  5266.9600     0.988701
  5266.9800     0.989603
  5267.0000     0.990780
  5267.0200     0.990905
  5267.0400     0.988553
  5267.0600     0.990391
  5267.0800     0.991111
  5267.1000     0.990494
  5267.1200     0.990357
  5267.1400     0.987696
  5267.1600     0.991019
  5267.1800     0.990643
  5267.2000     0.988530
  5267.2200     0.987982
  5267.2400     0.988895
  5267.2600     0.987285
  5267.2800     0.984841
  5267.3000     0.990106
  5267.3200     0.988987
  5267.3400     0.989455
  5267.3600     0.990380
  5267.3800     0.993440
  5267.4000     0.991876
  5267.4200     0.992047
  5267.4400     0.992835
  5267.4600     0.994959
  5267.4800     0.994982
  5267.5000     0.993406
  5267.5200     0.994171
  5267.5400     0.993623
  5267.5600     0.993909
  5267.5800     0.991922
  5267.6000     0.993372
  5267.6200     0.993760
  5267.6400     0.993497
  5267.6600     0.994080
  5267.6800     0.994514
  5267.7000     0.993737
  5267.7200     0.994662
  5267.7400     0.994548
  5267.7600     0.995382
  5267.7800     0.995290
  5267.8000     0.996055
  5267.8200     0.996078
  5267.8400     0.994537
  5267.8600     0.994719
  5267.8800     0.994594
  5267.9000     0.994057
  5267.9200     0.994422
  5267.9400     0.994491
  5267.9600     0.995747
  5267.9800     0.995941
  5268.0000     0.993909
  5268.0200     0.995313
  5268.0400     0.995496
  5268.0600     0.999093
  5268.0800     0.999972
  5268.1000     1.000018
  5268.1200     0.999641
  5268.1400     1.001126
  5268.1600     1.000817
  5268.1800     1.001103
  5268.2000     0.998179
  5268.2200     0.999790
  5268.2400     0.998259
  5268.2600     0.995793
  5268.2800     0.995896
  5268.3000     0.994365
  5268.3200     0.993223
  5268.3400     0.992104
  5268.3600     0.991442
  5268.3800     0.990528
  5268.4000     0.987525
  5268.4200     0.985115
  5268.4400     0.984465
  5268.4600     0.982832
  5268.4800     0.980285
  5268.5000     0.979851
  5268.5200     0.978207
  5268.5400     0.979874
  5268.5600     0.978092
  5268.5800     0.979006
  5268.6000     0.978035
  5268.6200     0.977019
  5268.6400     0.978561
  5268.6600     0.978846
  5268.6800     0.980000
  5268.7000     0.979554
  5268.7200     0.979280
  5268.7400     0.979977
  5268.7600     0.979280
  5268.7800     0.980205
  5268.8000     0.979771
  5268.8200     0.980605
  5268.8400     0.981735
  5268.8600     0.982112
  5268.8800     0.980822
  5268.9000     0.983996
  5268.9200     0.985127
  5268.9400     0.987308
  5268.9600     0.989443
  5268.9800     0.992561
  5269.0000     0.994422
  5269.0200     0.995850
  5269.0400     0.995050
  5269.0600     0.996478
  5269.0800     0.996729
  5269.1000     0.995233
  5269.1200     0.994377
  5269.1400     0.994137
  5269.1600     0.993863
  5269.1800     0.995050
  5269.2000     0.994365
  5269.2200     0.992458
  5269.2400     0.993132
  5269.2600     0.990722
  5269.2800     0.985846
  5269.3000     0.982409
  5269.3200     0.976014
  5269.3400     0.972954
  5269.3600     0.964674
  5269.3800     0.953792
  5269.4000     0.941481
  5269.4200     0.931101
  5269.4400     0.922982
  5269.4600     0.912932
  5269.4800     0.904996
  5269.5000     0.900759
  5269.5200     0.898601
  5269.5400     0.893782
  5269.5600     0.891852
  5269.5800     0.890128
  5269.6000     0.888495
  5269.6200     0.889054
  5269.6400     0.887627
  5269.6600     0.889728
  5269.6800     0.890642
  5269.7000     0.892651
  5269.7200     0.895792
  5269.7400     0.899914
  5269.7600     0.902826
  5269.7800     0.908719
  5269.8000     0.914840
  5269.8200     0.925106
  5269.8400     0.935623
  5269.8600     0.944884
  5269.8800     0.954625
  5269.9000     0.964172
  5269.9200     0.970430
  5269.9400     0.976300
  5269.9600     0.980879
  5269.9800     0.980719
  5270.0000     0.979657
  5270.0200     0.978526
  5270.0400     0.978013
  5270.0600     0.976357
  5270.0800     0.973479
  5270.1000     0.972839
  5270.1200     0.970419
  5270.1400     0.965851
  5270.1600     0.961214
  5270.1800     0.955219
  5270.2000     0.949327
  5270.2200     0.944176
  5270.2400     0.939780
  5270.2600     0.937553
  5270.2800     0.935486
  5270.3000     0.933739
  5270.3200     0.934219
  5270.3400     0.936057
  5270.3600     0.936423
  5270.3800     0.936354
  5270.4000     0.937679
  5270.4200     0.938912
  5270.4400     0.940693
  5270.4600     0.941013
  5270.4800     0.941835
  5270.5000     0.942155
  5270.5200     0.942977
  5270.5400     0.943583
  5270.5600     0.946426
  5270.5800     0.948584
  5270.6000     0.952638
  5270.6200     0.955973
  5270.6400     0.961854
  5270.6600     0.965634
  5270.6800     0.976482
  5270.7000     0.983049
  5270.7200     0.990243
  5270.7400     0.995724
  5270.7600     0.997186
  5270.7800     1.000829
  5270.8000     0.999961
  5270.8200     1.000452
  5270.8400     0.999641
  5270.8600     0.999093
  5270.8800     0.999458
  5270.9000     0.997848
  5270.9200     0.995850
  5270.9400     0.995759
  5270.9600     0.995245
  5270.9800     0.993440
  5271.0000     0.993555
  5271.0200     0.993783
  5271.0400     0.991568
  5271.0600     0.992378
  5271.0800     0.992687
  5271.1000     0.992139
  5271.1200     0.991282
  5271.1400     0.991031
  5271.1600     0.991236
  5271.1800     0.991522
  5271.2000     0.991682
  5271.2200     0.991613
  5271.2400     0.992173
  5271.2600     0.991396
  5271.2800     0.990643
  5271.3000     0.991488
  5271.3200     0.992139
  5271.3400     0.992013
  5271.3600     0.991396
  5271.3800     0.992321
  5271.4000     0.994354
  5271.4200     0.994696
  5271.4400     0.995210
  5271.4600     0.994742
  5271.4800     0.995930
  5271.5000     0.996615
  5271.5200     0.997140
  5271.5400     0.996718
  5271.5600     0.996170
  5271.5800     0.996546
  5271.6000     0.997049
  5271.6200     0.998967
  5271.6400     0.997494
  5271.6600     0.997494
  5271.6800     0.997289
  5271.7000     0.998237
  5271.7200     0.996341
  5271.7400     0.996923
  5271.7600     0.997803
  5271.7800     0.997072
  5271.8000     0.995599
  5271.8200     0.994297
  5271.8400     0.996775
  5271.8600     0.994091
  5271.8800     0.995530
  5271.9000     0.994057
  5271.9200     0.994228
  5271.9400     0.995153
  5271.9600     0.995679
  5271.9800     0.994457
  5272.0000     0.994742
  5272.0200     0.996227
  5272.0400     0.996455
  5272.0600     0.997780
  5272.0800     1.001708
  5272.1000     0.999630
  5272.1200     0.998271
  5272.1400     0.996935
  5272.1600     0.994263
  5272.1800     0.987936
  5272.2000     0.981518
  5272.2200     0.975329
  5272.2400     0.968317
  5272.2600     0.960632
  5272.2800     0.954191
  5272.3000     0.947317
  5272.3200     0.941904
  5272.3400     0.938455
  5272.3600     0.935075
  5272.3800     0.931957
  5272.4000     0.930005
  5272.4200     0.929068
  5272.4400     0.928440
  5272.4600     0.927595
  5272.4800     0.928155
  5272.5000     0.927949
  5272.5200     0.928406
  5272.5400     0.929594
  5272.5600     0.933259
  5272.5800     0.935612
  5272.6000     0.939175
  5272.6200     0.942966
  5272.6400     0.945307
  5272.6600     0.950948
  5272.6800     0.957115
  5272.7000     0.964069
  5272.7200     0.970453
  5272.7400     0.976859
  5272.7600     0.985549
  5272.7800     0.991887
  5272.8000     0.997072
  5272.8200     0.998396
  5272.8400     1.001286
  5272.8600     1.000121
  5272.8800     0.999584
  5272.9000     0.999082
  5272.9200     0.999219
  5272.9400     0.998362
  5272.9600     0.998054
  5272.9800     0.995404
  5273.0000     0.995245
  5273.0200     0.992812
  5273.0400     0.992093
  5273.0600     0.989375
  5273.0800     0.989386
  5273.1000     0.988724
  5273.1200     0.988724
  5273.1400     0.985652
  5273.1600     0.986040
  5273.1800     0.985184
  5273.2000     0.983928
  5273.2200     0.983345
  5273.2400     0.980548
  5273.2600     0.982009
  5273.2800     0.983140
  5273.3000     0.980730
  5273.3200     0.978938
  5273.3400     0.980045
  5273.3600     0.981416
  5273.3800     0.981655
  5273.4000     0.981290
  5273.4200     0.982112
  5273.4400     0.982957
  5273.4600     0.985835
  5273.4800     0.987080
  5273.5000     0.987479
  5273.5200     0.994525
  5273.5400     0.997928
  5273.5600     0.998362
  5273.5800     0.998054
  5273.6000     0.999481
  5273.6200     0.998739
  5273.6400     0.998305
  5273.6600     0.997540
  5273.6800     1.000075
  5273.7000     1.000109
  5273.7200     0.999127
  5273.7400     1.000075
  5273.7600     0.999732
  5273.7800     0.999447
  5273.8000     1.001411
  5273.8200     1.000315
  5273.8400     0.999458
  5273.8600     0.999025
  5273.8800     1.000852
  5273.9000     1.000269
  5273.9200     0.999207
  5273.9400     0.998979
  5273.9600     1.000498
  5273.9800     1.000338
  5274.0000     1.000075
  5274.0200     1.000281
  5274.0400     1.000178
  5274.0600     0.999812
  5274.0800     0.999801
  5274.1000     0.999344
  5274.1200     0.999002
  5274.1400     0.999664
  5274.1600     0.999835
  5274.1800     0.999104
  5274.2000     0.998967
  5274.2200     0.999047
  5274.2400     0.998522
  5274.2600     0.997746
  5274.2800     0.997688
  5274.3000     0.997072
  5274.3200     0.997403
  5274.3400     0.997220
  5274.3600     0.997060
  5274.3800     0.996969
  5274.4000     0.997483
  5274.4200     0.996044
  5274.4400     0.996204
  5274.4600     0.997129
  5274.4800     0.995530
  5274.5000     0.996775
  5274.5200     0.996581
  5274.5400     0.997631
  5274.5600     0.996855
  5274.5800     0.997734
  5274.6000     0.996798
  5274.6200     0.998214
  5274.6400     0.999835
  5274.6600     0.998705
  5274.6800     0.997551
  5274.7000     0.995336
  5274.7200     0.991830
  5274.7400     0.985401
  5274.7600     0.977499
  5274.7800     0.967598
  5274.8000     0.956076
  5274.8200     0.943594
  5274.8400     0.929936
  5274.8600     0.917466
  5274.8800     0.907029
  5274.9000     0.896785
  5274.9200     0.889637
  5274.9400     0.883093
  5274.9600     0.878400
  5274.9800     0.872964
  5275.0000     0.869173
  5275.0200     0.868373
  5275.0400     0.869538
  5275.0600     0.867848
  5275.0800     0.867962
  5275.1000     0.868556
  5275.1200     0.868225
  5275.1400     0.870292
  5275.1600     0.873958
  5275.1800     0.877692
  5275.2000     0.883995
  5275.2200     0.892834
  5275.2400     0.900588
  5275.2600     0.911071
  5275.2800     0.923119
  5275.3000     0.936548
  5275.3200     0.951051
  5275.3400     0.962996
  5275.3600     0.971823
  5275.3800     0.980422
  5275.4000     0.985378
  5275.4200     0.990745
  5275.4400     0.990791
  5275.4600     0.992333
  5275.4800     0.993029
  5275.5000     0.992687
  5275.5200     0.992515
  5275.5400     0.993280
  5275.5600     0.991819
  5275.5800     0.992127
  5275.6000     0.990631
  5275.6200     0.993098
  5275.6400     0.989284
  5275.6600     0.990323
  5275.6800     0.988439
  5275.7000     0.986440
  5275.7200     0.981393
  5275.7400     0.975158
  5275.7600     0.964572
  5275.7800     0.951702
  5275.8000     0.934824
  5275.8200     0.916712
  5275.8400     0.897733
  5275.8600     0.874803
  5275.8800     0.852786
  5275.9000     0.835542
  5275.9200     0.817728
  5275.9400     0.803031
  5275.9600     0.790606
  5275.9800     0.781196
  5276.0000     0.773031
  5276.0200     0.768007
  5276.0400     0.764798
  5276.0600     0.764307
  5276.0800     0.764044
  5276.1000     0.765700
  5276.1200     0.769023
  5276.1400     0.773728
  5276.1600     0.779678
  5276.1800     0.786723
  5276.2000     0.798086
  5276.2200     0.810419
  5276.2400     0.823986
  5276.2600     0.841046
  5276.2800     0.859169
  5276.3000     0.881803
  5276.3200     0.901901
  5276.3400     0.922913
  5276.3600     0.941207
  5276.3800     0.957617
  5276.4000     0.970887
  5276.4200     0.980182
  5276.4400     0.987502
  5276.4600     0.991670
  5276.4800     0.994091
  5276.5000     0.996044
  5276.5200     0.998431
  5276.5400     0.999527
  5276.5600     0.997129
  5276.5800     0.998636
  5276.6000     0.998339
  5276.6200     1.000737
  5276.6400     1.005191
  5276.6600     1.005237
  5276.6800     1.003729
  5276.7000     1.003638
  5276.7200     1.003307
  5276.7400     1.001366
  5276.7600     1.001011
  5276.7800     1.000144
  5276.8000     0.998613
  5276.8200     1.000749
  5276.8400     1.000418
  5276.8600     1.000578
  5276.8800     0.999424
  5276.9000     1.000087
  5276.9200     1.000041
  5276.9400     1.000429
  5276.9600     1.000315
  5276.9800     1.000440
  5277.0000     1.000840
  5277.0200     1.000498
  5277.0400     1.000555
  5277.0600     1.001137
  5277.0800     0.999732
  5277.1000     1.001126
  5277.1200     0.999116
  5277.1400     0.999104
  5277.1600     0.999481
  5277.1800     0.998716
  5277.2000     0.999276
  5277.2200     0.998031
  5277.2400     0.999618
  5277.2600     0.998191
  5277.2800     0.998134
  5277.3000     0.998294
  5277.3200     0.996855
  5277.3400     0.997209
  5277.3600     0.998237
  5277.3800     0.997300
  5277.4000     0.997369
  5277.4200     0.996923
  5277.4400     0.997209
  5277.4600     0.997597
  5277.4800     0.997586
  5277.5000     0.997175
  5277.5200     0.996821
  5277.5400     0.996261
  5277.5600     0.995907
  5277.5800     0.995975
  5277.6000     0.996021
  5277.6200     0.995816
  5277.6400     0.996113
  5277.6600     0.994754
  5277.6800     0.995507
  5277.7000     0.994845
  5277.7200     0.993749
  5277.7400     0.993452
  5277.7600     0.993863
  5277.7800     0.992047
  5277.8000     0.992995
  5277.8200     0.992230
  5277.8400     0.993532
  5277.8600     0.992926
  5277.8800     0.994194
  5277.9000     0.993749
  5277.9200     0.993623
  5277.9400     0.994194
  5277.9600     0.993909
  5277.9800     0.994080
  5278.0000     0.993280
  5278.0200     0.992367
  5278.0400     0.990391
  5278.0600     0.991179
  5278.0800     0.990277
  5278.1000     0.987993
  5278.1200     0.985275
  5278.1400     0.985058
  5278.1600     0.984248
  5278.1800     0.982866
  5278.2000     0.982809
  5278.2200     0.982146
  5278.2400     0.981461
  5278.2600     0.981541
  5278.2800     0.981221
  5278.3000     0.980125
  5278.3200     0.985321
  5278.3400     0.987799
  5278.3600     0.988439
  5278.3800     0.988850
  5278.4000     0.988724
  5278.4200     0.988793
  5278.4400     0.990608
  5278.4600     0.991076
  5278.4800     0.992595
  5278.5000     0.992413
  5278.5200     0.994183
  5278.5400     0.995861
  5278.5600     0.997026
  5278.5800     0.998945
  5278.6000     1.000212
  5278.6200     1.001183
  5278.6400     1.001091
  5278.6600     1.000726
  5278.6800     1.000486
  5278.7000     0.999618
  5278.7200     0.997494
  5278.7400     0.995062
  5278.7600     0.992538
  5278.7800     0.990140
  5278.8000     0.987160
  5278.8200     0.983585
  5278.8400     0.981416
  5278.8600     0.979486
  5278.8800     0.978138
  5278.9000     0.976756
  5278.9200     0.974084
  5278.9400     0.972714
  5278.9600     0.972303
  5278.9800     0.971903
  5279.0000     0.971332
  5279.0200     0.971777
  5279.0400     0.972702
  5279.0600     0.971389
  5279.0800     0.971241
  5279.1000     0.972748
  5279.1200     0.973970
  5279.1400     0.974084
  5279.1600     0.974438
  5279.1800     0.976825
  5279.2000     0.978218
  5279.2200     0.980182
  5279.2400     0.982866
  5279.2600     0.984270
  5279.2800     0.988039
  5279.3000     0.990802
  5279.3200     0.993086
  5279.3400     0.994354
  5279.3600     0.994845
  5279.3800     0.996535
  5279.4000     0.997574
  5279.4200     0.997254
  5279.4400     0.997848
  5279.4600     0.997734
  5279.4800     0.997220
  5279.5000     0.998773
  5279.5200     0.999892
  5279.5400     0.999127
  5279.5600     0.998568
  5279.5800     0.998602
  5279.6000     0.998385
  5279.6200     0.997620
  5279.6400     0.994971
  5279.6600     0.991076
  5279.6800     0.987605
  5279.7000     0.983288
  5279.7200     0.976151
  5279.7400     0.969848
  5279.7600     0.964743
  5279.7800     0.960621
  5279.8000     0.955801
  5279.8200     0.950252
  5279.8400     0.946506
  5279.8600     0.941219
  5279.8800     0.935486
  5279.9000     0.928863
  5279.9200     0.923770
  5279.9400     0.919624
  5279.9600     0.913412
  5279.9800     0.910945
  5280.0000     0.909735
  5280.0200     0.909187
  5280.0400     0.907520
  5280.0600     0.908113
  5280.0800     0.909290
  5280.1000     0.910180
  5280.1200     0.912955
  5280.1400     0.921360
  5280.1600     0.925380
  5280.1800     0.929925
  5280.2000     0.936537
  5280.2200     0.942498
  5280.2400     0.949555
  5280.2600     0.956121
  5280.2800     0.960689
  5280.3000     0.965280
  5280.3200     0.968603
  5280.3400     0.972223
  5280.3600     0.975078
  5280.3800     0.979486
  5280.4000     0.982797
  5280.4200     0.987023
  5280.4400     0.992607
  5280.4600     0.995930
  5280.4800     0.998111
  5280.5000     0.998556
  5280.5200     1.000635
  5280.5400     1.001240
  5280.5600     1.000144
  5280.5800     1.000041
  5280.6000     1.000098
  5280.6200     1.000372
  5280.6400     0.999310
  5280.6600     0.998362
  5280.6800     0.999059
  5280.7000     1.000064
  5280.7200     0.999493
  5280.7400     0.998671
  5280.7600     0.998168
  5280.7800     0.998636
  5280.8000     0.999675
  5280.8200     0.999824
  5280.8400     0.999333
  5280.8600     0.999561
  5280.8800     0.999127
  5280.9000     0.998465
  5280.9200     0.998591
  5280.9400     0.999127
  5280.9600     0.999664
  5280.9800     0.999002
  5281.0000     0.998042
  5281.0200     0.998533
  5281.0400     0.997597
  5281.0600     0.997506
  5281.0800     0.997962
  5281.1000     0.996969
  5281.1200     0.996387
  5281.1400     0.995850
  5281.1600     0.996192
  5281.1800     0.995267
  5281.2000     0.995130
  5281.2200     0.995279
  5281.2400     0.994617
  5281.2600     0.994902
  5281.2800     0.993623
  5281.3000     0.993646
  5281.3200     0.992664
  5281.3400     0.993829
  5281.3600     0.992470
  5281.3800     0.991659
  5281.4000     0.990220
  5281.4200     0.990346
  5281.4400     0.990985
  5281.4600     0.991134
  5281.4800     0.991647
  5281.5000     0.991647
  5281.5200     0.990506
  5281.5400     0.989969
  5281.5600     0.990003
  5281.5800     0.988553
  5281.6000     0.985698
  5281.6200     0.982980
  5281.6400     0.979474
  5281.6600     0.976425
  5281.6800     0.974587
  5281.7000     0.973193
  5281.7200     0.971972
  5281.7400     0.970807
  5281.7600     0.969722
  5281.7800     0.969699
  5281.8000     0.968808
  5281.8200     0.968146
  5281.8400     0.966878
  5281.8600     0.967255
  5281.8800     0.965874
  5281.9000     0.967061
  5281.9200     0.966182
  5281.9400     0.966764
  5281.9600     0.968123
  5281.9800     0.967644
  5282.0000     0.968660
  5282.0200     0.970316
  5282.0400     0.971880
  5282.0600     0.975729
  5282.0800     0.983757
  5282.1000     0.984876
  5282.1200     0.987982
  5282.1400     0.992333
  5282.1600     0.995770
  5282.1800     0.997620
  5282.2000     0.999424
  5282.2200     0.999938
  5282.2400     1.000178
  5282.2600     0.999595
  5282.2800     0.999687
  5282.3000     1.000555
  5282.3200     1.000018
  5282.3400     1.000509
  5282.3600     0.999755
  5282.3800     0.999504
  5282.4000     0.998042
  5282.4200     0.999207
  5282.4400     0.998591
  5282.4600     0.997780
  5282.4800     0.998054
  5282.5000     0.997894
  5282.5200     0.997597
  5282.5400     0.997414
  5282.5600     0.998773
  5282.5800     0.998031
  5282.6000     0.999390
  5282.6200     0.998613
  5282.6400     0.997483
  5282.6600     0.996204
  5282.6800     0.997003
  5282.7000     0.996889
  5282.7200     0.996204
  5282.7400     0.995896
  5282.7600     0.995279
  5282.7800     0.995005
  5282.8000     0.995142
  5282.8200     0.994651
  5282.8400     0.993760
  5282.8600     0.994274
  5282.8800     0.994719
  5282.9000     0.994811
  5282.9200     0.993817
  5282.9400     0.994046
  5282.9600     0.993315
  5282.9800     0.993440
  5283.0000     0.992264
  5283.0200     0.991956
  5283.0400     0.991351
  5283.0600     0.992173
  5283.0800     0.991956
  5283.1000     0.991933
  5283.1200     0.991705
  5283.1400     0.992081
  5283.1600     0.992104
  5283.1800     0.991008
  5283.2000     0.990346
  5283.2200     0.991339
  5283.2400     0.992481
  5283.2600     0.991533
  5283.2800     0.991202
  5283.3000     0.992150
  5283.3200     0.992413
  5283.3400     0.992264
  5283.3600     0.992116
  5283.3800     0.991967
  5283.4000     0.989352
  5283.4200     0.985355
  5283.4400     0.980993
  5283.4600     0.976334
  5283.4800     0.970715
  5283.5000     0.966011
  5283.5200     0.962927
  5283.5400     0.960164
  5283.5600     0.956612
  5283.5800     0.954751
  5283.6000     0.952821
  5283.6200     0.952558
  5283.6400     0.952022
  5283.6600     0.950845
  5283.6800     0.949178
  5283.7000     0.950194
  5283.7200     0.948927
  5283.7400     0.950571
  5283.7600     0.950012
  5283.7800     0.950000
  5283.8000     0.949715
  5283.8200     0.949943
  5283.8400     0.949795
  5283.8600     0.946951
  5283.8800     0.942715
  5283.9000     0.938375
  5283.9200     0.931798
  5283.9400     0.923359
  5283.9600     0.915422
  5283.9800     0.907645
  5284.0000     0.901718
  5284.0200     0.896157
  5284.0400     0.888723
  5284.0600     0.884692
  5284.0800     0.880158
  5284.1000     0.878537
  5284.1200     0.873272
  5284.1400     0.872256
  5284.1600     0.870737
  5284.1800     0.869001
  5284.2000     0.869652
  5284.2200     0.878023
  5284.2400     0.879576
  5284.2600     0.881917
  5284.2800     0.884795
  5284.3000     0.887661
  5284.3200     0.893097
  5284.3400     0.898555
  5284.3600     0.905875
  5284.3800     0.914611
  5284.4000     0.926111
  5284.4200     0.938912
  5284.4400     0.950880
  5284.4600     0.963338
  5284.4800     0.974598
  5284.5000     0.981861
  5284.5200     0.986920
  5284.5400     0.989969
  5284.5600     0.991533
  5284.5800     0.991236
  5284.6000     0.991008
  5284.6200     0.991293
  5284.6400     0.990220
  5284.6600     0.990037
  5284.6800     0.990802
  5284.7000     0.988998
  5284.7200     0.989706
  5284.7400     0.989284
  5284.7600     0.990277
  5284.7800     0.989581
  5284.8000     0.990049
  5284.8200     0.990289
  5284.8400     0.990574
  5284.8600     0.990517
  5284.8800     0.989569
  5284.9000     0.991568
  5284.9200     0.991922
  5284.9400     0.992652
  5284.9600     0.993143
  5284.9800     0.993064
  5285.0000     0.991910
  5285.0200     0.992710
  5285.0400     0.993246
  5285.0600     0.993669
  5285.0800     0.993703
  5285.1000     0.994285
  5285.1200     0.995165
  5285.1400     0.993966
  5285.1600     0.994251
  5285.1800     0.994343
  5285.2000     0.993269
  5285.2200     0.992550
  5285.2400     0.993726
  5285.2600     0.991042
  5285.2800     0.992333
  5285.3000     0.991739
  5285.3200     0.992104
  5285.3400     0.990414
  5285.3600     0.990631
  5285.3800     0.991019
  5285.4000     0.990814
  5285.4200     0.989832
  5285.4400     0.989969
  5285.4600     0.989946
  5285.4800     0.989523
  5285.5000     0.989923
  5285.5200     0.989912
  5285.5400     0.989763
  5285.5600     0.990551
  5285.5800     0.989386
  5285.6000     0.990346
  5285.6200     0.991385
  5285.6400     0.991785
  5285.6600     0.992413
  5285.6800     0.992173
  5285.7000     0.993612
  5285.7200     0.993897
  5285.7400     0.994011
  5285.7600     0.994194
  5285.7800     0.995325
  5285.8000     0.994925
  5285.8200     0.994525
  5285.8400     0.995804
  5285.8600     0.995039
  5285.8800     0.995153
  5285.9000     0.994822
  5285.9200     0.994354
  5285.9400     0.994959
  5285.9600     0.996078
  5285.9800     0.995861
  5286.0000     0.996158
  5286.0200     0.996489
  5286.0400     0.995953
  5286.0600     0.996455
  5286.0800     0.996638
  5286.1000     0.994811
  5286.1200     0.994046
  5286.1400     0.995222
  5286.1600     0.994891
  5286.1800     0.994343
  5286.2000     0.994685
  5286.2200     0.993874
  5286.2400     0.994605
  5286.2600     0.994228
  5286.2800     0.994845
  5286.3000     0.993874
  5286.3200     0.995165
  5286.3400     0.994559
  5286.3600     0.994377
  5286.3800     0.994708
  5286.4000     0.995747
  5286.4200     0.995644
  5286.4400     0.994993
  5286.4600     0.995370
  5286.4800     0.995325
  5286.5000     0.994400
  5286.5200     0.993943
  5286.5400     0.994754
  5286.5600     0.993589
  5286.5800     0.993109
  5286.6000     0.998762
  5286.6200     0.999538
  5286.6400     0.997243
  5286.6600     0.997711
  5286.6800     0.998202
  5286.7000     0.997266
  5286.7200     0.997369
  5286.7400     0.996604
  5286.7600     0.996261
  5286.7800     0.994959
  5286.8000     0.995793
  5286.8200     0.994788
  5286.8400     0.994948
  5286.8600     0.995222
  5286.8800     0.994799
  5286.9000     0.996284
  5286.9200     0.994651
  5286.9400     0.994936
  5286.9600     0.995553
  5286.9800     0.995359
  5287.0000     0.995907
  5287.0200     0.996489
  5287.0400     0.996010
  5287.0600     0.995679
  5287.0800     0.995039
  5287.1000     0.995450
  5287.1200     0.996832
  5287.1400     0.996158
  5287.1600     0.996992
  5287.1800     0.995884
  5287.2000     0.996101
  5287.2200     0.996455
  5287.2400     0.996307
  5287.2600     0.994719
  5287.2800     0.994845
  5287.3000     0.994811
  5287.3200     0.995827
  5287.3400     0.995039
  5287.3600     0.995701
  5287.3800     0.996295
  5287.4000     0.996055
  5287.4200     0.996033
  5287.4400     0.997220
  5287.4600     0.997780
  5287.4800     0.997049
  5287.5000     0.995736
  5287.5200     0.995005
  5287.5400     0.996558
  5287.5600     0.997597
  5287.5800     0.997277
  5287.6000     0.996809
  5287.6200     0.997060
  5287.6400     0.996798
  5287.6600     0.995245
  5287.6800     0.996033
  5287.7000     0.994639
  5287.7200     0.993749
  5287.7400     0.994936
  5287.7600     0.993486
  5287.7800     0.993726
  5287.8000     0.993235
  5287.8200     0.994068
  5287.8400     0.993018
  5287.8600     0.991293
  5287.8800     0.990414
  5287.9000     0.990585
  5287.9200     0.990357
  5287.9400     0.990357
  5287.9600     0.990939
  5287.9800     0.990871
  5288.0000     0.990334
  5288.0200     0.990540
  5288.0400     0.992276
  5288.0600     0.991705
  5288.0800     0.991739
  5288.1000     0.991762
  5288.1200     0.991670
  5288.1400     0.991579
  5288.1600     0.990825
  5288.1800     0.990574
  5288.2000     0.991762
  5288.2200     0.992093
  5288.2400     0.993566
  5288.2600     0.993109
  5288.2800     0.992527
  5288.3000     0.993657
  5288.3200     0.992276
  5288.3400     0.992515
  5288.3600     0.992424
  5288.3800     0.992150
  5288.4000     0.991785
  5288.4200     0.992298
  5288.4400     0.991476
  5288.4600     0.991339
  5288.4800     0.991145
  5288.5000     0.991156
  5288.5200     0.990802
  5288.5400     0.989329
  5288.5600     0.990117
  5288.5800     0.990540
  5288.6000     0.991008
  5288.6200     0.990437
  5288.6400     0.990894
  5288.6600     0.989615
  5288.6800     0.989227
  5288.7000     0.989192
  5288.7200     0.988450
  5288.7400     0.987776
  5288.7600     0.989055
  5288.7800     0.987502
  5288.8000     0.988267
  5288.8200     0.988530
  5288.8400     0.988404
  5288.8600     0.987982
  5288.8800     0.988804
  5288.9000     0.988576
  5288.9200     0.988130
  5288.9400     0.988964
  5288.9600     0.989409
  5288.9800     0.989980
  5289.0000     0.990037
  5289.0200     0.990837
  5289.0400     0.990346
  5289.0600     0.990334
  5289.0800     0.989249
  5289.1000     0.990997
  5289.1200     0.991899
  5289.1400     0.991168
  5289.1600     0.993703
  5289.1800     0.991145
  5289.2000     0.992710
  5289.2200     0.994068
  5289.2400     0.994822
  5289.2600     0.995085
  5289.2800     0.996147
  5289.3000     0.996284
  5289.3200     0.996124
  5289.3400     0.996352
  5289.3600     0.998887
  5289.3800     1.002085
  5289.4000     1.000875
  5289.4200     1.000623
  5289.4400     1.000760
  5289.4600     0.999870
  5289.4800     0.999321
  5289.5000     0.999401
  5289.5200     1.000395
  5289.5400     0.999710
  5289.5600     0.999641
  5289.5800     0.999573
  5289.6000     0.999801
  5289.6200     0.998922
  5289.6400     0.998716
  5289.6600     0.998168
  5289.6800     0.997917
  5289.7000     0.998522
  5289.7200     0.998237
  5289.7400     0.998077
  5289.7600     0.998259
  5289.7800     0.998214
  5289.8000     0.996935
  5289.8200     0.997620
  5289.8400     0.997871
  5289.8600     0.996855
  5289.8800     0.995005
  5289.9000     0.993931
  5289.9200     0.994126
  5289.9400     0.994274
  5289.9600     0.992413
  5289.9800     0.991830
  5290.0000     0.991031
  5290.0200     0.989855
  5290.0400     0.988667
  5290.0600     0.989421
  5290.0800     0.987902
  5290.1000     0.987297
  5290.1200     0.986657
  5290.1400     0.987377
  5290.1600     0.987833
  5290.1800     0.987936
  5290.2000     0.988393
  5290.2200     0.987788
  5290.2400     0.988427
  5290.2600     0.988907
  5290.2800     0.989478
  5290.3000     0.989900
  5290.3200     0.990094
  5290.3400     0.990928
  5290.3600     0.992013
  5290.3800     0.992287
  5290.4000     0.992652
  5290.4200     0.994171
  5290.4400     0.993178
  5290.4600     0.994685
  5290.4800     0.994137
  5290.5000     0.994114
  5290.5200     0.994228
  5290.5400     0.994822
  5290.5600     0.994411
  5290.5800     0.994731
  5290.6000     0.994274
  5290.6200     0.994822
  5290.6400     0.994731
  5290.6600     0.994480
  5290.6800     0.993452
  5290.7000     0.993269
  5290.7200     0.993189
  5290.7400     0.993920
  5290.7600     0.994068
  5290.7800     0.993555
  5290.8000     0.993966
  5290.8200     0.993452
  5290.8400     0.993360
  5290.8600     0.993794
  5290.8800     0.992835
  5290.9000     0.994502
  5290.9200     0.993121
  5290.9400     0.995005
  5290.9600     0.995233
  5290.9800     0.994856
  5291.0000     0.995667
  5291.0200     0.994776
  5291.0400     0.994308
  5291.0600     0.994708
  5291.0800     0.993383
  5291.1000     0.992036
  5291.1200     0.991111
  5291.1400     0.991145
  5291.1600     0.990254
  5291.1800     0.989740
  5291.2000     0.989912
  5291.2200     0.989649
  5291.2400     0.988952
  5291.2600     0.989763
  5291.2800     0.989718
  5291.3000     0.990448
  5291.3200     0.991008
  5291.3400     0.990289
  5291.3600     0.989386
  5291.3800     0.988587
  5291.4000     0.987879
  5291.4200     0.987673
  5291.4400     0.984430
  5291.4600     0.981747
  5291.4800     0.976916
  5291.5000     0.970339
  5291.5200     0.965028
  5291.5400     0.958394
  5291.5600     0.954180
  5291.5800     0.949498
  5291.6000     0.944862
  5291.6200     0.941767
  5291.6400     0.938501
  5291.6600     0.935429
  5291.6800     0.933111
  5291.7000     0.931421
  5291.7200     0.930028
  5291.7400     0.930165
  5291.7600     0.931124
  5291.7800     0.931124
  5291.8000     0.933156
  5291.8200     0.934207
  5291.8400     0.937953
  5291.8600     0.939791
  5291.8800     0.943491
  5291.9000     0.948653
  5291.9200     0.953381
  5291.9400     0.958508
  5291.9600     0.964789
  5291.9800     0.971264
  5292.0000     0.977167
  5292.0200     0.982443
  5292.0400     0.987753
  5292.0600     0.992333
  5292.0800     0.993029
  5292.1000     0.993646
  5292.1200     0.993897
  5292.1400     0.994776
  5292.1600     0.995530
  5292.1800     0.995427
  5292.2000     0.996010
  5292.2200     0.995016
  5292.2400     0.995359
  5292.2600     0.995199
  5292.2800     0.995576
  5292.3000     0.995736
  5292.3200     0.996181
  5292.3400     0.995964
  5292.3600     0.995759
  5292.3800     0.994868
  5292.4000     0.994913
  5292.4200     0.994502
  5292.4400     0.994331
  5292.4600     0.994571
  5292.4800     0.994377
  5292.5000     0.994628
  5292.5200     0.993029
  5292.5400     0.993543
  5292.5600     0.993132
  5292.5800     0.991979
  5292.6000     0.992881
  5292.6200     0.992869
  5292.6400     0.991887
  5292.6600     0.991636
  5292.6800     0.992127
  5292.7000     0.991625
  5292.7200     0.990905
  5292.7400     0.990620
  5292.7600     0.991259
  5292.7800     0.990517
  5292.8000     0.989261
  5292.8200     0.994126
  5292.8400     0.996912
  5292.8600     0.996250
  5292.8800     0.996250
  5292.9000     0.998476
  5292.9200     0.997871
  5292.9400     0.996638
  5292.9600     0.998008
  5292.9800     0.998248
  5293.0000     0.997209
  5293.0200     0.996569
  5293.0400     0.997551
  5293.0600     0.997220
  5293.0800     0.997380
  5293.1000     0.998956
  5293.1200     0.999481
  5293.1400     0.999892
  5293.1600     1.000555
  5293.1800     1.000418
  5293.2000     1.000897
  5293.2200     1.000292
  5293.2400     0.999664
  5293.2600     0.999675
  5293.2800     0.998762
  5293.3000     0.999687
  5293.3200     1.000018
  5293.3400     0.999424
  5293.3600     0.998739
  5293.3800     0.998796
  5293.4000     0.997894
  5293.4200     0.997449
  5293.4400     0.995199
  5293.4600     0.997620
  5293.4800     0.997494
  5293.5000     0.997529
  5293.5200     0.997837
  5293.5400     0.997666
  5293.5600     0.997574
  5293.5800     0.997688
  5293.6000     0.998100
  5293.6200     0.998739
  5293.6400     0.999527
  5293.6600     1.000155
  5293.6800     0.999493
  5293.7000     0.999241
  5293.7200     0.998431
  5293.7400     0.998042
  5293.7600     0.997460
  5293.7800     0.998122
  5293.8000     0.998556
  5293.8200     0.998122
  5293.8400     0.996661
  5293.8600     0.997015
  5293.8800     0.996124
  5293.9000     0.993886
  5293.9200     0.991522
  5293.9400     0.988541
  5293.9600     0.985675
  5293.9800     0.983403
  5294.0000     0.981107
  5294.0200     0.979737
  5294.0400     0.978435
  5294.0600     0.976357
  5294.0800     0.975957
  5294.1000     0.974335
  5294.1200     0.973456
  5294.1400     0.972645
  5294.1600     0.971892
  5294.1800     0.970932
  5294.2000     0.970681
  5294.2200     0.969848
  5294.2400     0.969859
  5294.2600     0.970350
  5294.2800     0.970750
  5294.3000     0.970373
  5294.3200     0.970875
  5294.3400     0.971298
  5294.3600     0.972577
  5294.3800     0.973810
  5294.4000     0.976494
  5294.4200     0.977259
  5294.4400     0.981644
  5294.4600     0.984156
  5294.4800     0.987262
  5294.5000     0.989752
  5294.5200     0.992435
  5294.5400     0.994251
  5294.5600     0.995473
  5294.5800     0.995542
  5294.6000     0.996809
  5294.6200     0.998008
  5294.6400     0.996980
  5294.6600     0.998294
  5294.6800     0.998351
  5294.7000     0.997586
  5294.7200     0.997106
  5294.7400     0.997517
  5294.7600     0.997860
  5294.7800     0.997117
  5294.8000     0.999139
  5294.8200     0.997951
  5294.8400     0.999093
  5294.8600     1.000304
  5294.8800     1.000155
  5294.9000     1.000703
  5294.9200     1.000749
  5294.9400     1.000109
  5294.9600     0.999550
  5294.9800     1.000429
  5295.0000     1.000007
  5295.0200     0.999915
  5295.0400     0.999721
  5295.0600     1.000817
  5295.0800     1.000315
  5295.1000     0.999253
  5295.1200     0.999744
  5295.1400     0.998899
  5295.1600     0.998499
  5295.1800     0.996615
  5295.2000     0.995622
  5295.2200     0.994788
  5295.2400     0.992824
  5295.2600     0.992241
  5295.2800     0.990003
  5295.3000     0.989923
  5295.3200     0.988861
  5295.3400     0.987879
  5295.3600     0.987297
  5295.3800     0.986691
  5295.4000     0.987594
  5295.4200     0.988302
  5295.4400     0.987468
  5295.4600     0.987091
  5295.4800     0.986897
  5295.5000     0.986543
  5295.5200     0.987651
  5295.5400     0.986120
  5295.5600     0.986897
  5295.5800     0.986132
  5295.6000     0.987514
  5295.6200     0.989284
  5295.6400     0.989775
  5295.6600     0.990403
  5295.6800     0.991785
  5295.7000     0.992492
  5295.7200     0.993098
  5295.7400     0.996444
  5295.7600     0.996729
  5295.7800     0.996478
  5295.8000     0.996729
  5295.8200     0.997654
  5295.8400     0.996889
  5295.8600     0.997060
  5295.8800     0.997380
  5295.9000     0.997471
  5295.9200     0.996478
  5295.9400     0.996980
  5295.9600     0.995998
  5295.9800     0.995896
  5296.0000     0.995108
  5296.0200     0.997300
  5296.0400     0.996992
  5296.0600     0.995896
  5296.0800     0.996672
  5296.1000     0.996512
  5296.1200     0.996535
  5296.1400     0.996809
  5296.1600     0.996375
  5296.1800     0.996489
  5296.2000     0.997529
  5296.2200     0.997277
  5296.2400     0.996192
  5296.2600     0.995896
  5296.2800     0.996044
  5296.3000     0.996626
  5296.3200     0.996307
  5296.3400     0.997494
  5296.3600     0.996067
  5296.3800     0.996900
  5296.4000     0.996192
  5296.4200     0.996067
  5296.4400     0.996535
  5296.4600     0.997083
  5296.4800     0.996969
  5296.5000     0.996010
  5296.5200     0.997186
  5296.5400     0.996992
  5296.5600     0.996615
  5296.5800     0.995816
  5296.6000     0.994971
  5296.6200     0.995233
  5296.6400     0.995610
  5296.6600     0.995096
  5296.6800     0.996329
  5296.7000     0.995850
  5296.7200     0.995199
  5296.7400     0.995793
  5296.7600     0.996227
  5296.7800     0.995667
  5296.8000     0.995359
  5296.8200     0.994297
  5296.8400     0.993783
  5296.8600     0.992184
  5296.8800     0.991419
  5296.9000     0.991248
  5296.9200     0.989089
  5296.9400     0.988222
  5296.9600     0.987262
  5296.9800     0.986691
  5297.0000     0.984305
  5297.0200     0.984305
  5297.0400     0.983163
  5297.0600     0.982797
  5297.0800     0.982146
  5297.1000     0.982706
  5297.1200     0.982112
  5297.1400     0.982854
  5297.1600     0.980753
  5297.1800     0.978721
  5297.2000     0.979451
  5297.2200     0.978572
  5297.2400     0.977030
  5297.2600     0.977601
  5297.2800     0.977327
  5297.3000     0.979029
  5297.3200     0.978743
  5297.3400     0.980308
  5297.3600     0.982101
  5297.3800     0.982124
  5297.4000     0.985527
  5297.4200     0.986840
  5297.4400     0.987377
  5297.4600     0.988861
  5297.4800     0.988359
  5297.5000     0.989010
  5297.5200     0.989089
  5297.5400     0.988598
  5297.5600     0.988861
  5297.5800     0.989295
  5297.6000     0.989089
  5297.6200     0.989798
  5297.6400     0.990460
  5297.6600     0.990209
  5297.6800     0.991259
  5297.7000     0.993406
  5297.7200     0.994571
  5297.7400     0.995473
  5297.7600     0.995724
  5297.7800     0.996569
  5297.8000     0.995450
  5297.8200     0.995382
  5297.8400     0.995553
  5297.8600     0.995165
  5297.8800     0.994628
  5297.9000     0.994103
  5297.9200     0.994445
  5297.9400     0.994845
  5297.9600     0.994148
  5297.9800     0.993532
  5298.0000     0.993646
  5298.0200     0.994537
  5298.0400     0.991922
  5298.0600     0.993303
  5298.0800     0.997140
  5298.1000     0.997232
  5298.1200     0.996192
  5298.1400     0.994240
  5298.1600     0.993440
  5298.1800     0.991864
  5298.2000     0.992207
  5298.2200     0.992413
  5298.2400     0.991510
  5298.2600     0.990928
  5298.2800     0.991305
  5298.3000     0.990688
  5298.3200     0.989946
  5298.3400     0.991670
  5298.3600     0.992584
  5298.3800     0.992778
  5298.4000     0.992675
  5298.4200     0.993600
  5298.4400     0.993406
  5298.4600     0.995142
  5298.4800     0.994948
  5298.5000     0.995359
  5298.5200     0.994605
  5298.5400     0.994662
  5298.5600     0.994948
  5298.5800     0.995473
  5298.6000     0.996078
  5298.6200     0.996569
  5298.6400     0.995896
  5298.6600     0.995896
  5298.6800     0.996078
  5298.7000     0.992310
  5298.7200     0.992630
  5298.7400     0.990677
  5298.7600     0.989124
  5298.7800     0.988564
  5298.8000     0.986977
  5298.8200     0.986052
  5298.8400     0.985207
  5298.8600     0.985252
  5298.8800     0.984122
  5298.9000     0.983071
  5298.9200     0.981336
  5298.9400     0.981119
  5298.9600     0.982672
  5298.9800     0.982055
  5299.0000     0.983174
  5299.0200     0.981884
  5299.0400     0.984613
  5299.0600     0.985401
  5299.0800     0.984453
  5299.1000     0.986577
  5299.1200     0.987445
  5299.1400     0.988930
  5299.1600     0.988336
  5299.1800     0.988987
  5299.2000     0.989261
  5299.2200     0.989763
  5299.2400     0.990231
  5299.2600     0.988461
  5299.2800     0.986908
  5299.3000     0.985675
  5299.3200     0.985515
  5299.3400     0.984750
  5299.3600     0.983825
  5299.3800     0.982877
  5299.4000     0.983197
  5299.4200     0.981084
  5299.4400     0.982215
  5299.4600     0.981621
  5299.4800     0.980902
  5299.5000     0.982546
  5299.5200     0.982249
  5299.5400     0.982980
  5299.5600     0.983277
  5299.5800     0.984956
  5299.6000     0.984739
  5299.6200     0.984933
  5299.6400     0.987091
  5299.6600     0.988621
  5299.6800     0.990939
  5299.7000     0.993737
  5299.7200     0.994400
  5299.7400     0.995507
  5299.7600     0.994662
  5299.7800     0.995599
  5299.8000     0.995062
  5299.8200     0.992561
  5299.8400     0.991191
  5299.8600     0.990494
  5299.8800     0.989364
  5299.9000     0.988473
  5299.9200     0.986897
  5299.9400     0.987091
  5299.9600     0.986452
  5299.9800     0.985230
  5300.0000     0.986109
  5300.0200     0.986646
  5300.0400     0.986029
  5300.0600     0.986623
  5300.0800     0.986178
  5300.1000     0.986840
  5300.1200     0.986760
  5300.1400     0.987274
  5300.1600     0.987365
  5300.1800     0.987788
  5300.2000     0.988656
  5300.2200     0.989295
  5300.2400     0.989238
  5300.2600     0.989798
  5300.2800     0.991236
  5300.3000     0.992378
  5300.3200     0.992767
  5300.3400     0.995873
  5300.3600     0.996467
  5300.3800     0.997597
  5300.4000     0.998225
  5300.4200     1.000246
  5300.4400     1.000509
  5300.4600     0.999687
  5300.4800     0.999447
  5300.5000     0.999379
  5300.5200     1.000041
  5300.5400     1.000520
  5300.5600     1.000886
  5300.5800     0.999710
  5300.6000     0.998533
  5300.6200     0.999379
  5300.6400     1.000098
  5300.6600     0.998865
  5300.6800     0.998111
  5300.7000     0.998054
  5300.7200     0.998248
  5300.7400     0.997357
  5300.7600     0.997871
  5300.7800     0.998362
  5300.8000     0.998282
  5300.8200     0.997814
  5300.8400     0.998511
  5300.8600     0.997688
  5300.8800     0.998054
  5300.9000     0.998008
  5300.9200     0.997220
  5300.9400     0.998122
  5300.9600     0.997529
  5300.9800     0.997700
  5301.0000     0.996912
  5301.0200     0.996706
  5301.0400     0.998693
  5301.0600     0.997997
  5301.0800     0.997095
  5301.1000     0.996946
  5301.1200     0.997563
  5301.1400     0.997266
  5301.1600     0.997483
  5301.1800     0.997757
  5301.2000     0.998202
  5301.2200     0.998225
  5301.2400     0.999653
  5301.2600     0.999127
  5301.2800     0.999287
  5301.3000     0.998773
  5301.3200     0.998773
  5301.3400     0.998351
  5301.3600     0.998693
  5301.3800     0.998659
  5301.4000     0.997506
  5301.4200     0.996215
  5301.4400     0.997140
  5301.4600     0.997392
  5301.4800     0.996969
  5301.5000     0.998191
  5301.5200     0.997106
  5301.5400     0.997848
  5301.5600     0.998077
  5301.5800     0.997426
  5301.6000     0.997837
  5301.6200     0.999424
  5301.6400     0.999184
  5301.6600     0.998613
  5301.6800     0.998362
  5301.7000     0.998248
  5301.7200     0.998659
  5301.7400     0.998042
  5301.7600     0.996227
  5301.7800     0.996501
  5301.8000     0.997312
  5301.8200     0.997083
  5301.8400     0.996021
  5301.8600     0.997003
  5301.8800     0.995542
  5301.9000     0.996992
  5301.9200     0.998522
  5301.9400     0.999972
  5301.9600     0.998659
  5301.9800     0.998385
  5302.0000     0.998636
  5302.0200     0.998465
  5302.0400     0.999219
  5302.0600     0.997631
  5302.0800     0.994559
  5302.1000     0.991134
  5302.1200     0.988747
  5302.1400     0.985252
  5302.1600     0.981530
  5302.1800     0.978698
  5302.2000     0.974804
  5302.2200     0.972211
  5302.2400     0.968706
  5302.2600     0.965520
  5302.2800     0.962516
  5302.3000     0.959227
  5302.3200     0.957240
  5302.3400     0.955550
  5302.3600     0.953986
  5302.3800     0.951713
  5302.4000     0.950594
  5302.4200     0.949589
  5302.4400     0.948162
  5302.4600     0.947614
  5302.4800     0.947751
  5302.5000     0.947043
  5302.5200     0.947694
  5302.5400     0.949955
  5302.5600     0.951177
  5302.5800     0.952935
  5302.6000     0.957218
  5302.6200     0.960837
  5302.6400     0.964652
  5302.6600     0.970224
  5302.6800     0.975340
  5302.7000     0.978926
  5302.7200     0.982044
  5302.7400     0.985207
  5302.7600     0.989112
  5302.7800     0.992561
  5302.8000     0.994011
  5302.8200     0.996592
  5302.8400     0.997791
  5302.8600     0.998362
  5302.8800     0.998636
  5302.9000     0.997677
  5302.9200     0.999687
  5302.9400     1.000087
  5302.9600     0.999390
  5302.9800     1.000429
  5303.0000     1.000383
  5303.0200     0.997951
  5303.0400     0.998613
  5303.0600     0.996101
  5303.0800     0.997095
  5303.1000     0.997026
  5303.1200     0.996843
  5303.1400     0.996889
  5303.1600     0.996044
  5303.1800     0.995325
  5303.2000     0.993646
  5303.2200     0.991168
  5303.2400     0.989935
  5303.2600     0.988199
  5303.2800     0.986417
  5303.3000     0.984659
  5303.3200     0.983836
  5303.3400     0.982329
  5303.3600     0.980742
  5303.3800     0.981633
  5303.4000     0.980924
  5303.4200     0.979897
  5303.4400     0.979212
  5303.4600     0.980251
  5303.4800     0.980593
  5303.5000     0.980342
  5303.5200     0.980799
  5303.5400     0.981279
  5303.5600     0.981153
  5303.5800     0.983677
  5303.6000     0.983117
  5303.6200     0.985584
  5303.6400     0.984819
  5303.6600     0.987605
  5303.6800     0.989169
  5303.7000     0.990620
  5303.7200     0.992207
  5303.7400     0.994263
  5303.7600     0.995656
  5303.7800     0.995861
  5303.8000     0.996786
  5303.8200     0.996741
  5303.8400     0.997277
  5303.8600     0.996546
  5303.8800     0.997243
  5303.9000     0.997072
  5303.9200     0.996204
  5303.9400     0.998042
  5303.9600     0.998157
  5303.9800     0.998910
  5304.0000     0.999207
  5304.0200     0.999253
  5304.0400     0.998785
  5304.0600     0.997072
  5304.0800     0.996307
  5304.1000     0.995256
  5304.1200     0.994708
  5304.1400     0.993760
  5304.1600     0.994057
  5304.1800     0.992492
  5304.2000     0.993771
  5304.2200     0.992333
  5304.2400     0.992904
  5304.2600     0.992698
  5304.2800     0.992767
  5304.3000     0.992607
  5304.3200     0.992218
  5304.3400     0.991659
  5304.3600     0.990814
  5304.3800     0.991373
  5304.4000     0.992298
  5304.4200     0.991796
  5304.4400     0.991510
  5304.4600     0.991362
  5304.4800     0.992664
  5304.5000     0.993726
  5304.5200     0.992561
  5304.5400     0.993863
  5304.5600     0.995953
  5304.5800     0.996478
  5304.6000     0.995896
  5304.6200     0.995325
  5304.6400     0.996364
  5304.6600     0.996295
  5304.6800     0.996729
  5304.7000     0.997449
  5304.7200     0.997026
  5304.7400     0.996489
  5304.7600     0.995690
  5304.7800     0.996010
  5304.8000     0.995850
  5304.8200     0.995427
  5304.8400     0.995359
  5304.8600     0.995165
  5304.8800     0.994936
  5304.9000     0.995462
  5304.9200     0.995016
  5304.9400     0.995793
  5304.9600     0.995576
  5304.9800     0.995028
  5305.0000     0.995462
  5305.0200     0.996387
  5305.0400     0.995199
  5305.0600     0.995953
  5305.0800     0.994925
  5305.1000     0.994468
  5305.1200     0.994948
  5305.1400     0.995073
  5305.1600     0.995701
  5305.1800     0.994183
  5305.2000     0.994559
  5305.2200     0.994925
  5305.2400     0.994856
  5305.2600     0.993692
  5305.2800     0.992481
  5305.3000     0.993292
  5305.3200     0.992401
  5305.3400     0.990974
  5305.3600     0.990962
  5305.3800     0.990448
  5305.4000     0.990437
  5305.4200     0.990289
  5305.4400     0.989512
  5305.4600     0.989672
  5305.4800     0.989626
  5305.5000     0.989946
  5305.5200     0.990814
  5305.5400     0.991510
  5305.5600     0.992458
  5305.5800     0.990974
  5305.6000     0.992139
  5305.6200     0.988907
  5305.6400     0.985664
  5305.6600     0.983128
  5305.6800     0.977327
  5305.7000     0.970967
  5305.7200     0.964560
  5305.7400     0.959079
  5305.7600     0.954203
  5305.7800     0.949978
  5305.8000     0.947477
  5305.8200     0.945124
  5305.8400     0.941618
  5305.8600     0.939460
  5305.8800     0.938033
  5305.9000     0.937290
  5305.9200     0.936354
  5305.9400     0.934710
  5305.9600     0.932997
  5305.9800     0.932232
  5306.0000     0.930667
  5306.0200     0.929468
  5306.0400     0.927378
  5306.0600     0.926236
  5306.0800     0.924969
  5306.1000     0.925620
  5306.1200     0.925916
  5306.1400     0.929045
  5306.1600     0.932220
  5306.1800     0.936856
  5306.2000     0.943069
  5306.2200     0.948653
  5306.2400     0.955573
  5306.2600     0.959319
  5306.2800     0.963019
  5306.3000     0.966684
  5306.3200     0.967803
  5306.3400     0.969939
  5306.3600     0.969745
  5306.3800     0.971286
  5306.4000     0.973353
  5306.4200     0.976676
  5306.4400     0.979691
  5306.4600     0.980525
  5306.4800     0.982523
  5306.5000     0.986086
  5306.5200     0.989432
  5306.5400     0.991682
  5306.5600     0.993692
  5306.5800     0.994936
  5306.6000     0.994480
  5306.6200     0.997711
  5306.6400     0.995473
  5306.6600     0.997152
  5306.6800     0.997220
  5306.7000     0.997449
  5306.7200     0.997106
  5306.7400     0.998568
  5306.7600     0.997529
  5306.7800     0.996992
  5306.8000     0.997277
  5306.8200     0.996558
  5306.8400     0.996364
  5306.8600     0.997814
  5306.8800     0.997334
  5306.9000     0.998225
  5306.9200     0.998785
  5306.9400     0.999527
  5306.9600     0.997974
  5306.9800     0.997746
  5307.0000     0.998545
  5307.0200     0.998008
  5307.0400     0.996238
  5307.0600     0.994868
  5307.0800     0.995713
  5307.1000     0.994674
  5307.1200     0.993006
  5307.1400     0.994057
  5307.1600     0.991899
  5307.1800     0.991933
  5307.2000     0.991385
  5307.2200     0.991236
  5307.2400     0.990791
  5307.2600     0.990848
  5307.2800     0.991031
  5307.3000     0.991076
  5307.3200     0.991065
  5307.3400     0.992127
  5307.3600     0.991476
  5307.3800     0.991647
  5307.4000     0.991910
  5307.4200     0.992847
  5307.4400     0.991636
  5307.4600     0.992024
  5307.4800     0.992367
  5307.5000     0.992024
  5307.5200     0.992972
  5307.5400     0.993041
  5307.5600     0.994217
  5307.5800     0.995336
  5307.6000     0.996033
  5307.6200     0.997003
  5307.6400     0.997015
  5307.6600     0.998682
  5307.6800     0.999207
  5307.7000     0.998728
  5307.7200     0.997038
  5307.7400     0.997860
  5307.7600     0.998739
  5307.7800     0.999653
  5307.8000     0.999790
  5307.8200     1.000589
  5307.8400     0.999470
  5307.8600     1.000372
  5307.8800     0.999972
  5307.9000     0.999778
  5307.9200     1.000029
  5307.9400     1.000852
  5307.9600     0.999801
  5307.9800     0.998979
  5308.0000     0.998819
  5308.0200     0.998476
  5308.0400     0.998511
  5308.0600     1.000509
  5308.0800     0.999219
  5308.1000     0.998910
  5308.1200     1.001023
  5308.1400     0.999344
  5308.1600     0.998020
  5308.1800     0.995713
  5308.2000     0.993623
  5308.2200     0.987445
  5308.2400     0.982443
  5308.2600     0.974906
  5308.2800     0.966993
  5308.3000     0.960917
  5308.3200     0.956007
  5308.3400     0.949555
  5308.3600     0.945410
  5308.3800     0.943685
  5308.4000     0.942486
  5308.4200     0.940134
  5308.4400     0.938284
  5308.4600     0.937153
  5308.4800     0.936845
  5308.5000     0.936491
  5308.5200     0.936343
  5308.5400     0.936491
  5308.5600     0.937245
  5308.5800     0.938980
  5308.6000     0.940716
  5308.6200     0.943343
  5308.6400     0.946826
  5308.6600     0.948459
  5308.6800     0.951588
  5308.7000     0.956932
  5308.7200     0.961420
  5308.7400     0.965976
  5308.7600     0.971972
  5308.7800     0.978172
  5308.8000     0.983540
  5308.8200     0.989603
  5308.8400     0.992173
  5308.8600     0.994628
  5308.8800     0.996604
  5308.9000     0.996010
  5308.9200     0.997608
  5308.9400     0.998830
  5308.9600     0.999607
  5308.9800     0.998750
  5309.0000     0.998625
  5309.0200     0.997414
  5309.0400     0.998237
  5309.0600     0.997551
  5309.0800     0.998385
  5309.1000     0.997346
  5309.1200     0.997574
  5309.1400     0.998111
  5309.1600     0.997825
  5309.1800     0.997471
  5309.2000     0.999059
  5309.2200     0.998008
  5309.2400     0.999470
  5309.2600     0.999561
  5309.2800     0.999356
  5309.3000     0.999618
  5309.3200     0.999413
  5309.3400     0.999892
  5309.3600     0.999127
  5309.3800     0.998202
  5309.4000     0.999241
  5309.4200     0.998887
  5309.4400     1.000201
  5309.4600     1.000326
  5309.4800     0.999835
  5309.5000     0.999835
  5309.5200     1.000269
  5309.5400     0.999504
  5309.5600     1.001034
  5309.5800     1.000372
  5309.6000     0.997814
  5309.6200     1.000235
  5309.6400     0.999595
  5309.6600     1.000212
  5309.6800     0.998933
  5309.7000     0.997757
  5309.7200     0.996558
  5309.7400     0.997768
  5309.7600     0.995359
  5309.7800     0.995313
  5309.8000     0.995188
  5309.8200     0.994822
  5309.8400     0.991396
  5309.8600     0.990928
  5309.8800     0.992253
  5309.9000     0.990860
  5309.9200     0.990882
  5309.9400     0.991431
  5309.9600     0.991328
  5309.9800     0.992127
  5310.0000     0.990768
  5310.0200     0.990802
  5310.0400     0.990506
  5310.0600     0.991328
  5310.0800     0.990745
  5310.1000     0.991670
  5310.1200     0.991693
  5310.1400     0.991899
  5310.1600     0.991830
  5310.1800     0.991899
  5310.2000     0.993874
  5310.2200     0.992572
  5310.2400     0.993806
  5310.2600     0.995427
  5310.2800     0.994023
  5310.3000     0.995644
  5310.3200     0.995507
  5310.3400     0.995633
  5310.3600     0.995542
  5310.3800     0.995770
  5310.4000     0.994719
  5310.4200     0.993692
  5310.4400     0.993178
  5310.4600     0.991670
  5310.4800     0.988496
  5310.5000     0.983574
  5310.5200     0.974118
  5310.5400     0.964343
  5310.5600     0.961648
  5310.5800     0.960415
  5310.6000     0.963224
  5310.6200     0.963099
  5310.6400     0.962299
  5310.6600     0.962608
  5310.6800     0.960426
  5310.7000     0.960324
  5310.7200     0.960895
  5310.7400     0.960221
  5310.7600     0.958748
  5310.7800     0.960678
  5310.8000     0.958965
  5310.8200     0.960632
  5310.8400     0.960472
  5310.8600     0.962779
  5310.8800     0.963567
  5310.9000     0.964926
  5310.9200     0.965337
  5310.9400     0.966833
  5310.9600     0.969436
  5310.9800     0.973022
  5311.0000     0.975820
  5311.0200     0.981838
  5311.0400     0.985115
  5311.0600     0.990939
  5311.0800     0.994354
  5311.1000     0.996843
  5311.1200     0.998910
  5311.1400     0.999493
  5311.1600     0.999824
  5311.1800     1.000201
  5311.2000     0.999458
  5311.2200     1.000178
  5311.2400     1.000646
  5311.2600     1.000795
  5311.2800     0.998693
  5311.3000     1.000029
  5311.3200     0.999413
  5311.3400     0.998956
  5311.3600     0.998488
  5311.3800     0.998613
  5311.4000     0.997551
  5311.4200     0.998237
  5311.4400     0.995781
  5311.4600     0.997277
  5311.4800     0.996923
  5311.5000     0.997426
  5311.5200     0.995850
  5311.5400     0.995473
  5311.5600     0.995096
  5311.5800     0.994651
  5311.6000     0.994457
  5311.6200     0.995142
  5311.6400     0.993806
  5311.6600     0.992687
  5311.6800     0.994171
  5311.7000     0.993874
  5311.7200     0.994297
  5311.7400     0.994343
  5311.7600     0.994913
  5311.7800     0.995130
  5311.8000     0.995199
  5311.8200     0.995188
  5311.8400     0.995564
  5311.8600     0.996729
  5311.8800     0.994662
  5311.9000     0.995644
  5311.9200     0.995873
  5311.9400     0.996341
  5311.9600     0.994285
  5311.9800     0.996512
  5312.0000     0.996615
  5312.0200     0.996044
  5312.0400     0.996067
  5312.0600     0.995941
  5312.0800     0.998385
  5312.1000     0.996786
  5312.1200     0.998100
  5312.1400     0.997791
  5312.1600     0.997038
  5312.1800     0.997586
  5312.2000     0.997871
  5312.2200     0.998294
  5312.2400     0.998910
  5312.2600     0.998750
  5312.2800     0.998020
  5312.3000     0.997289
  5312.3200     1.000098
  5312.3400     0.996900
  5312.3600     0.997791
  5312.3800     0.998979
  5312.4000     0.999755
  5312.4200     0.998294
  5312.4400     0.998008
  5312.4600     0.999915
  5312.4800     0.999230
  5312.5000     0.997768
  5312.5200     0.999299
  5312.5400     0.997791
  5312.5600     0.998522
  5312.5800     0.997403
  5312.6000     0.998317
  5312.6200     0.999561
  5312.6400     0.998750
  5312.6600     0.997894
  5312.6800     0.998008
  5312.7000     0.998396
  5312.7200     0.997883
  5312.7400     0.996546
  5312.7600     0.997951
  5312.7800     0.996261
  5312.8000     0.997209
  5312.8200     0.998876
  5312.8400     0.997540
  5312.8600     0.997334
  5312.8800     0.996592
  5312.9000     0.995336
  5312.9200     0.995804
  5312.9400     0.995290
  5312.9600     0.992287
  5312.9800     0.995039
  5313.0000     0.992036
  5313.0200     0.991065
  5313.0400     0.990277
  5313.0600     0.989912
  5313.0800     0.989992
  5313.1000     0.989661
  5313.1200     0.989364
  5313.1400     0.988701
  5313.1600     0.989592
  5313.1800     0.989135
  5313.2000     0.989980
  5313.2200     0.990802
  5313.2400     0.990951
  5313.2600     0.989729
  5313.2800     0.989249
  5313.3000     0.987148
  5313.3200     0.988507
  5313.3400     0.986166
  5313.3600     0.980799
  5313.3800     0.974073
  5313.4000     0.968683
  5313.4200     0.960289
  5313.4400     0.951040
  5313.4600     0.940522
  5313.4800     0.934356
  5313.5000     0.926910
  5313.5200     0.923084
  5313.5400     0.918014
  5313.5600     0.914211
  5313.5800     0.912944
  5313.6000     0.910295
  5313.6200     0.908844
  5313.6400     0.907291
  5313.6600     0.907485
  5313.6800     0.907862
  5313.7000     0.907325
  5313.7200     0.908627
  5313.7400     0.910397
  5313.7600     0.911848
  5313.7800     0.914702
  5313.8000     0.919236
  5313.8200     0.922205
  5313.8400     0.925597
  5313.8600     0.932369
  5313.8800     0.940819
  5313.9000     0.949624
  5313.9200     0.960598
  5313.9400     0.969836
  5313.9600     0.977716
  5313.9800     0.985721
  5314.0000     0.990825
  5314.0200     0.992218
  5314.0400     0.995050
  5314.0600     0.993874
  5314.0800     0.994913
  5314.1000     0.993634
  5314.1200     0.993886
  5314.1400     0.994822
  5314.1600     0.995496
  5314.1800     0.995850
  5314.2000     0.996432
  5314.2200     0.997186
  5314.2400     0.996775
  5314.2600     0.997608
  5314.2800     0.998134
  5314.3000     0.999207
  5314.3200     0.999516
  5314.3400     0.999778
  5314.3600     0.999790
  5314.3800     1.001240
  5314.4000     0.999287
  5314.4200     0.999870
  5314.4400     1.000064
  5314.4600     0.999013
  5314.4800     0.996272
  5314.5000     0.998922
  5314.5200     0.998682
  5314.5400     0.998716
  5314.5600     0.998785
  5314.5800     0.997266
  5314.6000     0.998579
  5314.6200     0.998442
  5314.6400     0.997186
  5314.6600     0.995964
  5314.6800     0.995016
  5314.7000     0.996706
  5314.7200     0.996912
  5314.7400     0.995941
  5314.7600     0.995736
  5314.7800     0.995759
  5314.8000     0.995507
  5314.8200     0.996683
  5314.8400     0.996763
  5314.8600     0.996375
  5314.8800     0.995222
  5314.9000     0.994068
  5314.9200     0.993440
  5314.9400     0.994548
  5314.9600     0.992949
  5314.9800     0.991134
  5315.0000     0.990802
  5315.0200     0.989204
  5315.0400     0.989101
  5315.0600     0.988153
  5315.0800     0.986577
  5315.1000     0.987536
  5315.1200     0.985595
  5315.1400     0.986726
  5315.1600     0.984476
  5315.1800     0.984168
  5315.2000     0.983677
  5315.2200     0.984978
  5315.2400     0.986052
  5315.2600     0.986189
  5315.2800     0.986337
  5315.3000     0.987559
  5315.3200     0.986189
  5315.3400     0.985881
  5315.3600     0.985321
  5315.3800     0.987114
  5315.4000     0.984122
  5315.4200     0.984236
  5315.4400     0.985138
  5315.4600     0.984385
  5315.4800     0.984899
  5315.5000     0.983779
  5315.5200     0.981667
  5315.5400     0.982169
  5315.5600     0.984179
  5315.5800     0.981827
  5315.6000     0.981416
  5315.6200     0.982740
  5315.6400     0.981804
  5315.6600     0.982032
  5315.6800     0.982306
  5315.7000     0.981176
  5315.7200     0.983551
  5315.7400     0.984876
  5315.7600     0.982478
  5315.7800     0.985412
  5315.8000     0.986474
  5315.8200     0.985949
  5315.8400     0.986132
  5315.8600     0.988553
  5315.8800     0.989010
  5315.9000     0.991602
  5315.9200     0.994845
  5315.9400     0.994411
  5315.9600     0.994160
  5315.9800     0.993646
  5316.0000     0.991613
  5316.0200     0.986828
  5316.0400     0.983037
  5316.0600     0.978424
  5316.0800     0.973193
  5316.1000     0.967004
  5316.1200     0.962265
  5316.1400     0.958634
  5316.1600     0.955105
  5316.1800     0.952398
  5316.2000     0.949783
  5316.2200     0.946883
  5316.2400     0.946826
  5316.2600     0.943800
  5316.2800     0.942715
  5316.3000     0.938980
  5316.3200     0.935109
  5316.3400     0.929959
  5316.3600     0.921977
  5316.3800     0.913012
  5316.4000     0.897893
  5316.4200     0.883379
  5316.4400     0.864833
  5316.4600     0.846139
  5316.4800     0.828188
  5316.5000     0.810168
  5316.5200     0.793244
  5316.5400     0.776252
  5316.5600     0.760139
  5316.5800     0.743843
  5316.6000     0.725286
  5316.6200     0.706364
  5316.6400     0.688196
  5316.6600     0.670210
  5316.6800     0.655707
  5316.7000     0.643671
  5316.7200     0.637641
  5316.7400     0.632297
  5316.7600     0.631064
  5316.7800     0.632434
  5316.8000     0.637550
  5316.8200     0.645612
  5316.8400     0.655992
  5316.8600     0.671100
  5316.8800     0.689886
  5316.9000     0.711286
  5316.9200     0.734239
  5316.9400     0.760036
  5316.9600     0.785433
  5316.9800     0.808992
  5317.0000     0.830358
  5317.0200     0.852911
  5317.0400     0.873512
  5317.0600     0.891795
  5317.0800     0.908856
  5317.1000     0.923381
  5317.1200     0.940773
  5317.1400     0.955162
  5317.1600     0.967541
  5317.1800     0.977944
  5317.2000     0.986132
  5317.2200     0.992173
  5317.2400     0.994685
  5317.2600     0.995370
  5317.2800     0.996866
  5317.3000     0.997643
  5317.3200     0.998785
  5317.3400     0.996992
  5317.3600     0.995907
  5317.3800     0.996604
  5317.4000     0.998511
  5317.4200     0.995359
  5317.4400     0.994137
  5317.4600     0.994742
  5317.4800     0.994548
  5317.5000     0.993543
  5317.5200     0.995416
  5317.5400     0.993418
  5317.5600     0.995759
  5317.5800     0.993189
  5317.6000     0.995142
  5317.6200     0.994845
  5317.6400     0.994126
  5317.6600     0.995085
  5317.6800     0.994422
  5317.7000     0.993966
  5317.7200     0.995188
  5317.7400     0.994834
  5317.7600     0.995484
  5317.7800     0.993771
  5317.8000     0.995050
  5317.8200     0.993383
  5317.8400     0.993006
  5317.8600     0.991408
  5317.8800     0.991739
  5317.9000     0.989261
  5317.9200     0.986760
  5317.9400     0.984659
  5317.9600     0.983631
  5317.9800     0.981952
  5318.0000     0.981313
  5318.0200     0.978549
  5318.0400     0.978903
  5318.0600     0.976026
  5318.0800     0.973844
  5318.1000     0.972394
  5318.1200     0.972360
  5318.1400     0.971115
  5318.1600     0.969094
  5318.1800     0.969882
  5318.2000     0.969539
  5318.2200     0.970133
  5318.2400     0.969025
  5318.2600     0.968009
  5318.2800     0.969254
  5318.3000     0.969425
  5318.3200     0.969779
  5318.3400     0.972702
  5318.3600     0.975649
  5318.3800     0.976779
  5318.4000     0.978755
  5318.4200     0.981416
  5318.4400     0.983677
  5318.4600     0.984545
  5318.4800     0.986086
  5318.5000     0.985721
  5318.5200     0.986052
  5318.5400     0.985983
  5318.5600     0.986052
  5318.5800     0.984316
  5318.6000     0.984008
  5318.6200     0.982637
  5318.6400     0.981952
  5318.6600     0.980388
  5318.6800     0.979691
  5318.7000     0.983345
  5318.7200     0.980685
  5318.7400     0.982032
  5318.7600     0.984099
  5318.7800     0.985321
  5318.8000     0.985801
  5318.8200     0.986874
  5318.8400     0.986166
  5318.8600     0.987274
  5318.8800     0.987925
  5318.9000     0.987445
  5318.9200     0.991453
  5318.9400     0.990003
  5318.9600     0.988987
  5318.9800     0.990620
  5319.0000     0.991099
  5319.0200     0.991499
  5319.0400     0.993166
  5319.0600     0.992527
  5319.0800     0.992173
  5319.1000     0.994160
  5319.1200     0.993806
  5319.1400     0.994263
  5319.1600     0.995073
  5319.1800     0.996078
  5319.2000     0.994639
  5319.2200     0.995770
  5319.2400     0.996295
  5319.2600     0.994822
  5319.2800     0.993303
  5319.3000     0.993338
  5319.3200     0.993532
  5319.3400     0.994057
  5319.3600     0.995622
  5319.3800     0.994274
  5319.4000     0.994925
  5319.4200     0.996626
  5319.4400     0.996067
  5319.4600     1.000052
  5319.4800     0.998865
  5319.5000     0.997117
  5319.5200     0.997015
  5319.5400     1.000509
  5319.5600     1.001080
  5319.5800     1.001377
  5319.6000     1.001057
  5319.6200     1.000954
  5319.6400     0.999127
  5319.6600     0.999972
  5319.6800     0.998945
  5319.7000     0.995793
  5319.7200     0.996261
  5319.7400     0.997380
  5319.7600     0.995736
  5319.7800     0.995176
  5319.8000     0.995610
  5319.8200     0.995096
  5319.8400     0.994639
  5319.8600     0.993851
  5319.8800     0.993817
  5319.9000     0.993703
  5319.9200     0.992036
  5319.9400     0.992333
  5319.9600     0.993863
  5319.9800     0.993338
  5320.0000     0.992104
  5320.0200     0.992584
  5320.0400     0.994891
  5320.0600     0.993897
  5320.0800     0.994902
  5320.1000     0.994422
  5320.1200     0.991590
  5320.1400     0.993201
  5320.1600     0.992196
  5320.1800     0.993840
  5320.2000     0.992732
  5320.2200     0.994411
  5320.2400     0.992710
  5320.2600     0.994457
  5320.2800     0.991796
  5320.3000     0.993395
  5320.3200     0.994834
  5320.3400     0.994365
  5320.3600     0.994251
  5320.3800     0.993006
  5320.4000     0.994537
  5320.4200     0.994388
  5320.4400     0.993669
  5320.4600     0.992390
  5320.4800     0.992618
  5320.5000     0.995473
  5320.5200     0.995119
  5320.5400     0.993018
  5320.5600     0.993166
  5320.5800     0.994228
  5320.6000     0.992390
  5320.6200     0.991488
  5320.6400     0.993315
  5320.6600     0.991785
  5320.6800     0.992732
  5320.7000     0.992972
  5320.7200     0.992116
  5320.7400     0.992435
  5320.7600     0.993475
  5320.7800     0.994011
  5320.8000     0.993680
  5320.8200     0.991271
  5320.8400     0.990700
  5320.8600     0.992367
  5320.8800     0.992652
  5320.9000     0.991362
  5320.9200     0.992641
  5320.9400     0.992675
  5320.9600     0.992081
  5320.9800     0.993463
  5321.0000     0.991202
  5321.0200     0.991396
  5321.0400     0.992070
  5321.0600     0.992641
  5321.0800     0.992995
  5321.1000     0.992675
  5321.1200     0.994422
  5321.1400     0.994297
  5321.1600     0.994148
  5321.1800     0.993840
  5321.2000     0.993829
  5321.2200     0.994742
  5321.2400     0.995085
  5321.2600     0.996010
  5321.2800     0.994913
  5321.3000     0.997140
  5321.3200     0.996364
  5321.3400     0.995724
  5321.3600     0.994651
  5321.3800     0.995713
  5321.4000     0.996444
  5321.4200     0.995838
  5321.4400     0.997654
  5321.4600     0.998533
  5321.4800     0.998317
  5321.5000     0.999595
  5321.5200     1.002233
  5321.5400     0.999470
  5321.5600     1.000258
  5321.5800     0.999755
  5321.6000     0.998339
  5321.6200     1.000463
  5321.6400     0.998865
  5321.6600     0.996581
  5321.6800     0.996923
  5321.7000     0.995998
  5321.7200     0.996455
  5321.7400     0.994571
  5321.7600     0.994480
  5321.7800     0.993452
  5321.8000     0.992972
  5321.8200     0.993086
  5321.8400     0.991739
  5321.8600     0.993098
  5321.8800     0.991271
  5321.9000     0.989683
  5321.9200     0.988142
  5321.9400     0.988416
  5321.9600     0.989032
  5321.9800     0.987365
  5322.0000     0.986806
  5322.0200     0.985709
  5322.0400     0.986748
  5322.0600     0.987171
  5322.0800     0.985173
  5322.1000     0.986257
  5322.1200     0.984830
  5322.1400     0.983117
  5322.1600     0.985412
  5322.1800     0.984145
  5322.2000     0.985355
  5322.2200     0.985961
  5322.2400     0.985401
  5322.2600     0.986120
  5322.2800     0.986406
  5322.3000     0.986292
  5322.3200     0.987354
  5322.3400     0.986086
  5322.3600     0.989341
  5322.3800     0.986269
  5322.4000     0.988907
  5322.4200     0.989112
  5322.4400     0.991670
  5322.4600     0.992847
  5322.4800     0.993623
  5322.5000     0.994034
  5322.5200     0.999287
  5322.5400     0.994617
  5322.5600     0.996409
  5322.5800     0.997392
  5322.6000     0.997072
  5322.6200     1.000749
  5322.6400     1.000989
  5322.6600     1.003649
  5322.6800     1.000726
  5322.7000     1.001046
  5322.7200     0.997860
  5322.7400     1.001560
  5322.7600     1.000315
  5322.7800     0.999184
  5322.8000     1.001708
  5322.8200     1.001160
  5322.8400     0.999904
  5322.8600     0.998374
  5322.8800     1.000555
  5322.9000     1.000623
  5322.9200     0.998990
  5322.9400     0.997917
  5322.9600     0.998659
  5322.9800     0.998602
  5323.0000     0.999025
  5323.0200     0.999812
  5323.0400     0.995576
  5323.0600     0.998693
  5323.0800     0.999253
  5323.1000     0.998157
  5323.1200     0.997825
  5323.1400     0.996261
  5323.1600     0.996284
  5323.1800     0.997414
  5323.2000     0.995633
  5323.2200     0.995861
  5323.2400     0.996855
  5323.2600     0.999116
  5323.2800     0.997848
  5323.3000     0.999424
  5323.3200     0.998876
  5323.3400     0.998248
  5323.3600     0.999710
  5323.3800     0.999116
  5323.4000     0.997586
  5323.4200     1.001171
  5323.4400     1.001937
  5323.4600     1.000669
  5323.4800     0.998716
  5323.5000     0.999721
  5323.5200     0.999379
  5323.5400     0.998967
  5323.5600     1.000201
  5323.5800     0.998773
  5323.6000     0.996558
  5323.6200     0.995507
  5323.6400     0.996524
  5323.6600     0.997403
  5323.6800     0.997643
  5323.7000     0.998613
  5323.7200     0.997940
  5323.7400     0.999470
  5323.7600     0.998020
  5323.7800     0.998979
  5323.8000     0.998556
  5323.8200     0.998408
  5323.8400     1.000269
  5323.8600     1.000418
  5323.8800     0.996832
  5323.9000     0.996010
  5323.9200     0.994708
  5323.9400     0.991122
  5323.9600     0.986383
  5323.9800     0.981256
  5324.0000     0.972268
  5324.0200     0.964617
  5324.0400     0.957868
  5324.0600     0.948573
  5324.0800     0.941287
  5324.1000     0.935623
  5324.1200     0.929811
  5324.1400     0.928315
  5324.1600     0.922788
  5324.1800     0.920401
  5324.2000     0.917260
  5324.2200     0.917934
  5324.2400     0.917112
  5324.2600     0.914988
  5324.2800     0.915707
  5324.3000     0.915376
  5324.3200     0.917854
  5324.3400     0.921166
  5324.3600     0.922513
  5324.3800     0.925905
  5324.4000     0.929833
  5324.4200     0.931455
  5324.4400     0.938478
  5324.4600     0.945170
  5324.4800     0.952467
  5324.5000     0.959730
  5324.5200     0.966365
  5324.5400     0.975888
  5324.5600     0.985115
  5324.5800     0.991864
  5324.6000     0.994320
  5324.6200     0.995896
  5324.6400     0.995850
  5324.6600     0.997026
  5324.6800     0.997414
  5324.7000     0.996238
  5324.7200     0.996661
  5324.7400     0.994936
  5324.7600     0.994639
  5324.7800     0.994365
  5324.8000     0.996067
  5324.8200     0.995553
  5324.8400     0.993280
  5324.8600     0.994434
  5324.8800     0.994708
  5324.9000     0.993909
  5324.9200     0.993714
  5324.9400     0.995165
  5324.9600     0.991396
  5324.9800     0.993452
  5325.0000     0.991248
  5325.0200     0.992835
  5325.0400     0.993018
  5325.0600     0.992150
  5325.0800     0.993349
  5325.1000     0.992550
  5325.1200     0.991328
  5325.1400     0.991054
  5325.1600     0.991019
  5325.1800     0.992744
  5325.2000     0.989558
  5325.2200     0.990711
  5325.2400     0.991019
  5325.2600     0.991750
  5325.2800     0.991476
  5325.3000     0.986040
  5325.3200     0.985664
  5325.3400     0.978823
  5325.3600     0.970852
  5325.3800     0.963384
  5325.4000     0.956487
  5325.4200     0.945718
  5325.4400     0.936834
  5325.4600     0.931204
  5325.4800     0.924626
  5325.5000     0.919955
  5325.5200     0.918037
  5325.5400     0.914291
  5325.5600     0.910192
  5325.5800     0.909118
  5325.6000     0.910192
  5325.6200     0.907314
  5325.6400     0.905407
  5325.6600     0.906309
  5325.6800     0.907143
  5325.7000     0.909495
  5325.7200     0.910203
  5325.7400     0.913207
  5325.7600     0.913937
  5325.7800     0.916518
  5325.8000     0.922605
  5325.8200     0.927801
  5325.8400     0.936902
  5325.8600     0.945672
  5325.8800     0.954774
  5325.9000     0.963316
  5325.9200     0.973559
  5325.9400     0.982569
  5325.9600     0.986315
  5325.9800     0.988439
  5326.0000     0.992972
  5326.0200     0.995302
  5326.0400     0.993223
  5326.0600     0.995519
  5326.0800     0.996889
  5326.1000     0.998031
  5326.1200     0.997711
  5326.1400     0.999196
  5326.1600     0.997117
  5326.1800     0.995587
  5326.2000     0.996055
  5326.2200     0.997791
  5326.2400     0.998910
  5326.2600     0.997940
  5326.2800     0.998362
  5326.3000     0.998750
  5326.3200     0.997243
  5326.3400     1.000269
  5326.3600     0.995747
  5326.3800     0.995781
  5326.4000     0.999858
  5326.4200     0.999824
  5326.4400     0.995564
  5326.4600     0.995827
  5326.4800     0.996581
  5326.5000     0.997209
  5326.5200     0.998705
  5326.5400     0.993372
  5326.5600     0.996307
  5326.5800     0.996741
  5326.6000     0.996615
  5326.6200     0.996569
  5326.6400     0.997540
  5326.6600     0.994480
  5326.6800     0.997780
  5326.7000     0.996204
  5326.7200     0.997551
  5326.7400     0.999047
  5326.7600     0.998545
  5326.7800     0.996695
  5326.8000     0.998636
  5326.8200     0.997095
  5326.8400     0.996101
  5326.8600     0.997072
  5326.8800     0.999367
  5326.9000     0.997083
  5326.9200     0.998065
  5326.9400     0.996284
  5326.9600     0.997209
  5326.9800     0.996238
  5327.0000     0.995142
  5327.0200     0.998671
  5327.0400     0.996683
  5327.0600     0.997015
  5327.0800     0.998876
  5327.1000     0.998636
  5327.1200     0.997095
  5327.1400     0.997803
  5327.1600     0.999367
  5327.1800     0.997551
  5327.2000     1.000954
  5327.2200     1.004712
  5327.2400     1.000863
  5327.2600     0.999356
  5327.2800     1.001822
  5327.3000     0.999504
  5327.3200     0.999139
  5327.3400     0.995096
  5327.3600     0.997848
  5327.3800     0.997803
  5327.4000     0.999036
  5327.4200     0.998179
  5327.4400     0.996741
  5327.4600     0.998442
  5327.4800     0.998545
  5327.5000     0.997917
  5327.5200     1.000772
  5327.5400     0.999847
  5327.5600     1.000703
  5327.5800     0.999778
  5327.6000     0.998431
  5327.6200     1.000772
  5327.6400     0.998442
  5327.6600     1.001834
  5327.6800     1.001217
  5327.7000     0.999630
  5327.7200     0.997814
  5327.7400     0.996124
  5327.7600     0.998750
  5327.7800     0.997597
  5327.8000     0.990665
  5327.8200     0.986520
  5327.8400     0.981610
  5327.8600     0.973513
  5327.8800     0.963521
  5327.9000     0.955733
  5327.9200     0.943697
  5327.9400     0.938330
  5327.9600     0.930838
  5327.9800     0.924409
  5328.0000     0.918996
  5328.0200     0.914794
  5328.0400     0.914828
  5328.0600     0.912110
  5328.0800     0.910340
  5328.1000     0.907086
  5328.1200     0.909324
  5328.1400     0.905567
  5328.1600     0.906412
  5328.1800     0.903089
  5328.2000     0.903637
  5328.2200     0.903123
  5328.2400     0.908936
  5328.2600     0.906423
  5328.2800     0.911494
  5328.3000     0.915799
  5328.3200     0.921075
  5328.3400     0.925665
  5328.3600     0.930199
  5328.3800     0.938775
  5328.4000     0.947168
  5328.4200     0.952558
  5328.4400     0.958645
  5328.4600     0.962882
  5328.4800     0.962790
  5328.5000     0.960232
  5328.5200     0.964423
  5328.5400     0.963761
  5328.5600     0.963784
  5328.5800     0.962619
